"X","Sub_ID","Trial","Type","D_RT","D_Word","Outlier","D_Zscore","Correct","Length","Log_Freq_HAL"
1,157,1,1,"710","browse","true",-0.437,1,6,8.856
2,67,1,1,"1,094","refrigerant","false",0.825,1,11,4.644
3,120,1,1,"587","gaining","false",-0.645,1,7,8.304
4,21,1,1,"984","cheerless","true",0.025,1,9,2.639
5,236,1,1,"577","pattered","false",-0.763,1,8,1.386
6,236,2,1,"715","conjures","false",-0.364,1,8,5.268
7,236,5,1,"826","censorship","false",-0.043,1,10,9.339
8,236,6,1,"928","beckon","false",0.251,1,6,4.19
9,236,8,1,"1,047","superscribe","false",0.595,1,11,0
10,236,10,1,"1,296","husbandry","false",1.315,1,9,5.537
11,236,12,1,"1,452","nitwit","false",1.766,1,6,5.557
12,236,13,1,"674","factor","false",-0.483,1,6,10.041
13,236,17,1,"782","intuitively","true",-0.17,1,11,6.392
14,236,18,1,"1,469","precipitating","false",1.815,1,13,5.011
15,236,19,1,"785","pianists","true",-0.162,1,8,5.817
16,236,20,1,"1,007","redistribute","true",0.48,1,12,7.474
17,236,21,1,"548","lifer","false",-0.847,1,5,3.85
18,236,26,1,"740","translucent","false",-0.292,1,11,6.23
19,236,28,1,"1,515","stooges","true",1.948,1,7,6.387
20,236,29,1,"746","punctual","true",-0.275,1,8,4.248
21,236,30,1,"606","narrated","false",-0.679,1,8,6.366
22,236,31,1,"588","unanswerable","true",-0.731,1,12,5.037
23,236,33,1,"1,011","staunchest","true",0.491,1,10,4.5
24,236,35,1,"669","dartboard","false",-0.497,1,9,3.85
25,236,36,1,"1,112","Hamilton's","false",0.783,1,10,4.984
26,236,37,1,"714","taxidermy","false",-0.367,1,9,3.296
27,236,38,1,"621","aggressively","true",-0.636,1,12,7.162
28,236,39,1,"625","horoscope","false",-0.624,1,9,5.835
29,236,40,1,"502","slob","false",-0.98,1,4,5.938
30,236,43,1,"733","longshoremen's","true",-0.312,1,14,1.792
31,236,46,1,"876","laundered","true",0.101,1,9,5.106
32,236,49,1,"1,391","oversimplification","false",1.589,1,18,5.652
33,236,51,1,"1,068","Pooh","false",0.656,1,4,7.264
34,236,53,1,"698","knocking","true",-0.413,1,8,7.802
35,236,54,1,"917","omnibus","false",0.22,1,7,6.431
36,236,56,1,"1,075","blips","false",0.676,1,5,4.635
37,236,57,1,"831","curriculum","false",-0.029,1,10,8.324
38,236,59,1,"1,115","lustily","true",0.792,1,7,4.043
39,236,64,1,"755","waging","true",-0.249,1,6,6.075
40,236,65,1,"533","floors","false",-0.89,1,6,7.68
41,157,3,1,"679","scandalized","true",-0.557,1,11,4.06
42,157,7,1,"596","cabinet","true",-0.879,1,7,8.77
43,157,8,1,"777","Wilfred","true",-0.178,1,7,5.638
44,157,10,1,"505","valve","false",-1.231,1,5,8.44
45,157,11,1,"644","reliance","true",-0.693,1,8,7.295
46,157,12,1,"444","greenly","true",-1.467,1,7,3.178
47,157,13,1,"560","sphincter","false",-1.018,1,9,6.221
48,157,19,1,"704","commuting","false",-0.461,1,9,6.815
49,157,22,1,"723","kilometers","false",-0.387,1,10,7.36
50,157,27,1,"602","lipstick","true",-0.855,1,8,6.942
51,157,29,1,"666","contentious","true",-0.608,1,11,6.133
52,157,30,1,"537","streets","false",-1.107,1,7,9.21
53,157,33,1,"622","pilfer","false",-0.778,1,6,3.829
54,157,35,1,"618","Lucy","false",-0.794,1,4,8.146
55,157,36,1,"1,034","blabbermouth","false",0.817,1,12,2.708
56,157,37,1,"763","skateboard","false",-0.232,1,10,5.714
57,157,38,1,"741","diagnosticians","true",-0.317,1,14,0
58,157,41,1,"614","cull","false",-0.809,1,4,5.844
59,157,44,1,"756","Faust","false",-0.259,1,5,6.801
60,157,46,1,"790","geyser","false",-0.128,1,6,5.861
61,157,48,1,"748","sheered","false",-0.29,1,7,1.386
62,157,50,1,"578","seminal","false",-0.948,1,7,6.201
63,157,51,1,"721","exercising","true",-0.395,1,10,7.612
64,157,52,1,"600","movie","true",-0.863,1,5,11.023
65,157,54,1,"495","lends","true",-1.27,1,5,6.771
66,157,56,1,"621","deplore","false",-0.782,1,7,5.911
67,157,61,1,"605","prescribes","true",-0.844,1,10,5.338
68,157,66,1,"806","intermediate","true",-0.066,1,12,8.628
69,157,70,1,"1,035","contingent","false",0.821,1,10,7.338
70,157,72,1,"698","vaporize","true",-0.484,1,8,5.46
71,157,74,1,"498","bats","true",-1.258,1,4,8.265
72,157,75,1,"543","drooping","true",-1.084,1,8,4.727
73,157,76,1,"771","disapprobation","false",-0.201,1,14,2.079
74,157,77,1,"537","extremes","true",-1.107,1,8,7.493
75,157,78,1,"400","bubbly","false",-1.637,1,6,5.476
76,157,79,1,"516","responsibilities","false",-1.188,1,16,9.46
77,157,80,1,"367","infinitive","false",-1.765,1,10,4.804
78,157,81,1,"294","citadel","false",-2.048,1,7,7.919
79,157,84,1,"432","middles","true",-1.514,1,7,4.234
80,157,86,1,"965","enmities","true",0.55,1,8,2.303
81,157,87,1,"606","confound","true",-0.84,1,8,5.398
82,157,88,1,"475","mapping","true",-1.347,1,7,8.865
83,157,90,1,"514","incomparably","true",-1.196,1,12,3.892
84,157,93,1,"733","abominate","false",-0.348,1,9,1.099
85,157,94,1,"432","jug","true",-1.514,1,3,6.73
86,157,96,1,"553","allowable","true",-1.045,1,9,6.844
87,157,97,1,"680","hieroglyphic","false",-0.554,1,12,4.331
88,157,100,1,"529","calculating","false",-1.138,1,11,7.522
89,157,101,1,"503","celebrations","false",-1.239,1,12,6.538
90,157,102,1,"553","predecessor","true",-1.045,1,11,7.001
91,157,103,1,"505","Portugal","false",-1.231,1,8,8.223
92,157,106,1,"473","solidity","false",-1.355,1,8,4.905
93,157,108,1,"573","yielding","true",-0.968,1,8,6.831
94,157,110,1,"996","substitutionary","true",0.67,1,15,2.996
95,157,111,1,"581","breathing","false",-0.937,1,9,8.861
96,157,113,1,"611","bondsman","false",-0.821,1,8,2.773
97,157,114,1,"714","criminals","false",-0.422,1,9,9.055
98,157,115,1,"601","insurrections","false",-0.859,1,13,5.142
99,157,121,1,"665","ragbag","false",-0.612,1,6,0.693
100,157,124,1,"590","Scottish","false",-0.902,1,8,8.358
101,157,126,1,"548","neck","false",-1.064,1,4,9.605
102,157,128,1,"680","supposed","true",-0.554,1,8,10.74
103,157,131,1,"557","outcasts","false",-1.03,1,8,5.659
104,157,132,1,"653","drafting","true",-0.658,1,8,7.599
105,157,139,1,"752","also","false",-0.275,1,4,13.571
106,157,140,1,"569","faintly","false",-0.983,1,7,6.159
107,157,141,1,"485","affronting","false",-1.308,1,10,1.386
108,157,142,1,"626","unabashed","true",-0.763,1,9,5.257
109,157,144,1,"561","highlighting","false",-1.014,1,12,7.216
110,157,149,1,"621","uphold","true",-0.782,1,6,7.347
111,157,151,1,"568","paper's","true",-0.987,1,7,5.673
112,157,161,1,"712","maniacal","false",-0.43,1,8,5.677
113,157,163,1,"594","patron","false",-0.886,1,6,7.422
114,157,164,1,"563","bride","true",-1.006,1,5,8.21
115,157,166,1,"737","eightieth","false",-0.333,1,9,2.565
116,157,168,1,"583","children's","true",-0.929,1,10,8.915
117,157,174,1,"889","fertilizer","true",0.255,1,10,7.116
118,157,176,1,"806","monkey","false",-0.066,1,6,8.493
119,157,177,1,"688","expenses","false",-0.523,1,8,8.994
120,157,178,1,"887","jam","false",0.248,1,3,9.297
121,157,182,1,"504","informality","false",-1.235,1,11,3.761
122,157,183,1,"813","Austin","true",-0.039,1,6,9.882
123,157,186,1,"744","sledding","true",-0.306,1,8,5.293
124,157,187,1,"719","classified","false",-0.403,1,10,8.739
125,157,189,1,"870","racketeer","false",0.182,1,9,2.833
126,157,191,1,"689","cellophane","false",-0.519,1,10,5.545
127,157,192,1,"1,264","needlecraft","true",1.707,1,11,4.71
128,157,195,1,"1,004","tenth","true",0.701,1,5,7.854
129,157,199,1,"605","desertion","true",-0.844,1,9,4.673
130,157,205,1,"705","distortable","true",-0.457,1,11,1.099
131,157,207,1,"667","offspring","true",-0.604,1,9,8.053
132,157,213,1,"1,138","oscillograph","false",1.219,1,12,1.099
133,157,214,1,"939","concession","false",0.449,1,10,6.686
134,157,216,1,"752","traced","false",-0.275,1,6,7.815
135,157,219,1,"744","tact","false",-0.306,1,4,6.625
136,157,221,1,"727","evasions","false",-0.372,1,8,4.564
137,157,223,1,"841","commendable","true",0.07,1,11,5.841
138,157,228,1,"655","framework","true",-0.65,1,9,8.699
139,157,230,1,"934","nocturne","true",0.43,1,8,4.804
140,157,231,1,"924","trashcan","true",0.391,1,8,6.203
141,157,232,1,"885","novel's","true",0.24,1,7,4.595
142,157,236,1,"623","policed","false",-0.774,1,7,5.394
143,157,239,1,"641","spiritualize","false",-0.705,1,12,2.944
144,157,240,1,"934","roofer's","false",0.43,1,8,0
145,157,242,1,"1,837","reimbursements","false",3.925,1,14,4.477
146,157,243,1,"703","Laos","false",-0.465,1,4,7.36
147,157,244,1,"794","cluttered","true",-0.112,1,9,6.182
148,157,245,1,"888","Olga","false",0.252,1,4,7.494
149,157,248,1,"629","traditionalist","false",-0.751,1,14,5.308
150,157,251,1,"715","distasteful","false",-0.418,1,11,6.793
151,157,256,1,"584","weeks","false",-0.925,1,5,11.153
152,157,258,1,"891","egalitarian","true",0.263,1,11,5.919
153,157,260,1,"812","palpitate","false",-0.043,1,9,1.946
154,157,263,1,"762","honorary","true",-0.236,1,8,6.836
155,157,266,1,"821","patient's","false",-0.008,1,9,6.748
156,157,267,1,"1,153","scrounging","false",1.277,1,10,4.663
157,157,269,1,"807","unclenched","false",-0.062,1,10,2.398
158,157,272,1,"709","thundercloud","true",-0.441,1,12,1.946
159,157,274,1,"868","agglutination","true",0.174,1,13,1.609
160,157,275,1,"679","costly","true",-0.557,1,6,7.989
161,157,276,1,"691","attack","true",-0.511,1,6,10.737
162,157,278,1,"676","Haiti","false",-0.569,1,5,7.806
163,157,281,1,"806","kinds","true",-0.066,1,5,9.942
164,157,283,1,"764","deviation","false",-0.228,1,9,7.474
165,157,284,1,"536","tumbles","false",-1.111,1,7,4.615
166,157,285,1,"641","involved","false",-0.705,1,8,10.993
167,157,286,1,"577","definite","false",-0.952,1,8,8.736
168,157,287,1,"597","groan","false",-0.875,1,5,6.922
169,157,290,1,"574","rightfully","false",-0.964,1,10,6.928
170,157,291,1,"605","Huey","false",-0.844,1,4,6.691
171,157,292,1,"749","gallon","true",-0.286,1,6,8.214
172,157,295,1,"710","cheery","true",-0.437,1,6,5.561
173,157,296,1,"676","balance","true",-0.569,1,7,10.022
174,157,297,1,"1,081","tablespoonfuls","false",0.999,1,14,2.639
175,157,298,1,"646","overrated","false",-0.685,1,9,6.986
176,157,303,1,"778","vignette","false",-0.174,1,8,4.745
177,157,304,1,"886","unglamorous","true",0.244,1,11,3.367
178,157,305,1,"719","sickbed","true",-0.403,1,7,3.367
179,157,308,1,"832","stance","true",0.035,1,6,8.365
180,157,309,1,"665","bumps","false",-0.612,1,5,7.484
181,157,312,1,"808","magnetisms","true",-0.058,1,10,0
182,157,313,1,"1,156","unveiled","false",1.289,1,8,6.349
183,157,314,1,"553","spoonfeed","false",-1.045,1,9,3.526
184,157,316,1,"913","certifiable","true",0.348,1,11,4.942
185,157,320,1,"855","playwrights","true",0.124,1,11,4.984
186,157,322,1,"757","dwarfed","true",-0.255,1,7,4.997
187,157,324,1,"589","journalism","false",-0.906,1,10,8.047
188,157,325,1,"653","assets","false",-0.658,1,6,8.894
189,157,326,1,"830","scolding","false",0.027,1,8,5.298
190,157,327,1,"551","sexism","true",-1.053,1,6,7.444
191,157,330,1,"721","confiscation","false",-0.395,1,12,6.324
192,157,333,1,"624","endpoints","true",-0.77,1,9,5.209
193,157,335,1,"755","flicking","true",-0.263,1,8,6.151
194,157,337,1,"694","rumbled","true",-0.499,1,7,4.883
195,157,338,1,"727","disgrace","true",-0.372,1,8,7.142
196,157,339,1,"653","rivalled","false",-0.658,1,8,3.401
197,157,340,1,"546","subs","false",-1.072,1,4,7.894
198,157,342,1,"758","follicular","true",-0.252,1,10,2.773
199,157,343,1,"922","inure","true",0.383,1,5,3.045
200,157,350,1,"634","petrify","true",-0.732,1,7,3.258
201,157,351,1,"660","onsets","false",-0.631,1,6,1.792
202,157,355,1,"541","icy","false",-1.092,1,3,9.255
203,157,358,1,"631","clawing","false",-0.743,1,7,5.493
204,157,361,1,"591","trusty","false",-0.898,1,6,6.797
205,157,363,1,"583","anvil","true",-0.929,1,5,6.796
206,157,364,1,"604","destructive","true",-0.848,1,11,8.463
207,157,365,1,"642","damaged","false",-0.701,1,7,8.961
208,157,366,1,"739","embalm","false",-0.325,1,6,2.197
209,157,367,1,"566","beetles","true",-0.995,1,7,5.974
210,157,368,1,"581","rancid","false",-0.937,1,6,6.425
211,157,369,1,"527","Zambia","false",-1.146,1,6,5.663
212,157,370,1,"463","pursue","true",-1.394,1,6,8.598
213,157,372,1,"616","jewels","false",-0.801,1,6,6.838
214,157,374,1,"726","historic","true",-0.375,1,8,8.32
215,157,376,1,"440","choke","true",-1.483,1,5,7.993
216,157,379,1,"684","helps","true",-0.538,1,5,10.781
217,157,382,1,"746","indirectly","false",-0.298,1,10,7.951
218,157,384,1,"446","goals","false",-1.459,1,5,9.603
219,157,388,1,"735","bore","false",-0.341,1,4,8.188
220,157,389,1,"650","perforate","false",-0.67,1,9,3.135
221,157,391,1,"688","bang","true",-0.523,1,4,8.823
222,157,394,1,"668","consultants","false",-0.6,1,11,9.758
223,157,395,1,"652","visits","true",-0.662,1,6,8.318
224,157,396,1,"653","demoralize","true",-0.658,1,10,4.159
225,157,397,1,"545","soundly","true",-1.076,1,7,6.303
226,157,398,1,"709","pixels","true",-0.441,1,6,8.703
227,157,400,1,"724","awestruck","true",-0.383,1,9,4.663
228,157,401,1,"634","complementary","false",-0.732,1,13,6.934
229,157,402,1,"826","hurtled","false",0.012,1,7,3.738
230,157,405,1,"756","blots","true",-0.259,1,5,4.949
231,157,407,1,"790","xerox","true",-0.128,1,5,7.988
232,157,409,1,"1,352","predisposition","true",2.048,1,14,6.038
233,157,410,1,"904","maturation","true",0.314,1,10,5.153
234,157,413,1,"1,004","retranslated","false",0.701,1,12,2.944
235,157,414,1,"509","federate","true",-1.215,1,8,2.639
236,157,415,1,"557","Miami","false",-1.03,1,5,9.137
237,157,417,1,"943","squall","false",0.465,1,6,5.283
238,157,418,1,"812","aqualung","false",-0.043,1,8,4.19
239,157,420,1,"646","nearsightedly","true",-0.685,1,13,0
240,157,421,1,"677","snow","false",-0.565,1,4,9.914
241,157,423,1,"888","sluiceway","true",0.252,1,9,0
242,157,424,1,"636","shamrock","true",-0.724,1,8,6.211
243,157,425,1,"630","successively","false",-0.747,1,12,5.704
244,157,426,1,"561","piddle","false",-1.014,1,6,4.394
245,157,432,1,"898","wistfully","false",0.29,1,9,5.037
246,157,433,1,"653","squelch","true",-0.658,1,7,5.991
247,157,434,1,"748","reddish","true",-0.29,1,7,6.265
248,157,435,1,"585","advised","false",-0.921,1,7,8.622
249,157,438,1,"1,025","friendlier","true",0.782,1,10,6.103
250,157,440,1,"782","closeups","false",-0.159,1,8,4.852
251,157,442,1,"750","urbanize","false",-0.283,1,8,0
252,157,443,1,"828","gashes","false",0.019,1,6,3.871
253,157,445,1,"795","prayer","true",-0.108,1,6,9.234
254,157,448,1,"627","peppermint","true",-0.759,1,10,5.642
255,157,451,1,"979","rotating","true",0.604,1,8,7.963
256,157,456,1,"899","catchy","true",0.294,1,6,7.266
257,157,458,1,"636","restrained","false",-0.724,1,10,6.954
258,157,459,1,"748","you'd","false",-0.29,1,5,10.624
259,157,460,1,"640","defensiveness","false",-0.708,1,13,5.193
260,157,461,1,"512","foul","false",-1.204,1,4,8.312
261,157,463,1,"667","polled","true",-0.604,1,6,6.592
262,157,465,1,"899","cantankerous","true",0.294,1,12,4.29
263,157,468,1,"659","Jonah","true",-0.635,1,5,7.473
264,157,470,1,"612","bow","true",-0.817,1,3,8.923
265,157,472,1,"643","thrillers","true",-0.697,1,9,4.779
266,157,476,1,"645","overarch","false",-0.689,1,8,0
267,157,481,1,"758","lasted","true",-0.252,1,6,8.22
268,157,482,1,"877","cadet","true",0.209,1,5,6.925
269,157,483,1,"677","bogged","true",-0.565,1,6,6.535
270,157,484,1,"697","commerce","false",-0.488,1,8,9.192
271,157,486,1,"1,241","taunted","false",1.618,1,7,5.617
272,157,487,1,"597","Nancy","false",-0.875,1,5,9.219
273,157,489,1,"850","unloose","false",0.105,1,7,3.434
274,157,491,1,"1,093","enviable","true",1.045,1,8,4.963
275,157,492,1,"1,145","Chesapeake","false",1.246,1,10,7.108
276,157,493,1,"696","allegedly","true",-0.492,1,9,8.392
277,157,494,1,"615","glowered","false",-0.805,1,8,4.007
278,157,496,1,"671","symmetrical","true",-0.588,1,11,6.399
279,157,499,1,"814","hydrant","false",-0.035,1,7,4.89
280,157,500,1,"880","figs","true",0.221,1,4,6.693
281,159,1,1,"401","cells","true",-1.531,1,5,10.267
282,159,3,1,"412","assignments","true",-1.472,1,11,8.531
283,159,6,1,"575","wisest","false",-0.603,1,6,5.808
284,159,7,1,"585","bloodsucker","true",-0.549,1,11,3.689
285,159,8,1,"614","amble","false",-0.395,1,5,3.951
286,159,12,1,"491","grammar","false",-1.051,1,7,8.707
287,159,15,1,"799","dumbbells","true",0.592,1,9,4.682
288,159,18,1,"687","clamor","false",-0.005,1,6,5.361
289,159,19,1,"623","paradigm","false",-0.347,1,8,8.361
290,159,20,1,"675","omits","true",-0.069,1,5,5.759
291,159,21,1,"622","precipitated","false",-0.352,1,12,5.765
292,159,22,1,"489","insured","true",-1.061,1,7,7.862
293,159,28,1,"586","silences","true",-0.544,1,8,4.673
294,159,30,1,"500","manors","true",-1.003,1,6,3.611
295,159,31,1,"478","Tara","true",-1.12,1,4,7.298
296,159,36,1,"595","undercover","true",-0.496,1,10,8.055
297,159,37,1,"529","sportsmen's","false",-0.848,1,11,2.89
298,159,38,1,"576","varieties","true",-0.597,1,9,7.864
299,159,39,1,"504","sampling","false",-0.981,1,8,8.264
300,159,40,1,"514","consequently","true",-0.928,1,12,8.276
301,159,42,1,"607","Judy","true",-0.432,1,4,8.47
302,159,44,1,"605","minesweeper","false",-0.443,1,11,5.545
303,159,47,1,"493","potting","true",-1.04,1,7,5.384
304,159,49,1,"982","recollections","false",1.568,1,13,6.094
305,159,54,1,"1,009","pixilated","true",1.712,1,9,3.296
306,159,55,1,"557","trails","false",-0.699,1,6,8.436
307,159,56,1,"426","chick","false",-1.397,1,5,8.064
308,159,57,1,"544","douche","true",-0.768,1,6,5.455
309,159,59,1,"565","nailing","true",-0.656,1,7,5.595
310,159,62,1,"493","applying","false",-1.04,1,8,9.005
311,159,64,1,"814","Hamiltonian","false",0.672,1,11,4.663
312,159,68,1,"499","sleeper","true",-1.008,1,7,6.997
313,159,71,1,"686","malice","true",-0.011,1,6,7.134
314,159,76,1,"948","herein","false",1.387,1,6,8.66
315,159,77,1,"604","anthem","false",-0.448,1,6,7.193
316,159,78,1,"422","adjust","true",-1.419,1,6,9.056
317,159,79,1,"545","binder","false",-0.763,1,6,7.53
318,159,82,1,"512","knowingly","true",-0.939,1,9,7.856
319,159,84,1,"818","subdue","false",0.693,1,6,7.235
320,159,86,1,"739","cutouts","true",0.272,1,7,5.67
321,159,88,1,"474","endangering","true",-1.141,1,11,6.105
322,159,90,1,"545","servings","false",-0.763,1,8,7.026
323,159,93,1,"636","fluctuating","false",-0.277,1,11,5.407
324,159,96,1,"634","garishness","true",-0.288,1,10,0
325,159,97,1,"784","confabulated","true",0.512,1,12,1.609
326,159,100,1,"514","institute","true",-0.928,1,9,10.664
327,159,106,1,"526","alternately","true",-0.864,1,11,7.439
328,159,108,1,"564","increase","true",-0.661,1,8,10.684
329,159,110,1,"507","impair","false",-0.965,1,6,6.089
330,159,111,1,"555","declined","true",-0.709,1,8,7.985
331,159,113,1,"541","cobble","true",-0.784,1,6,4.796
332,159,124,1,"957","camelhair","false",1.435,1,9,0
333,159,125,1,"997","flamethrower","false",1.648,1,12,5.762
334,159,130,1,"550","unsocial","true",-0.736,1,8,3.296
335,159,131,1,"608","ousting","true",-0.427,1,7,4.234
336,159,135,1,"586","volatility","false",-0.544,1,10,6.513
337,159,140,1,"633","scrutiny","true",-0.293,1,8,7.712
338,159,141,1,"481","breeze","true",-1.104,1,6,7.659
339,159,142,1,"533","makings","false",-0.827,1,7,5.215
340,159,143,1,"518","heroine","true",-0.907,1,7,6.934
341,159,144,1,"508","rusting","true",-0.96,1,7,5.501
342,159,146,1,"562","presides","false",-0.672,1,8,4.357
343,159,149,1,"861","deposits","true",0.923,1,8,7.606
344,159,150,1,"519","received","true",-0.901,1,8,11.009
345,159,152,1,"561","disrupt","true",-0.677,1,7,7.191
346,159,153,1,"618","petitions","false",-0.373,1,9,6.693
347,159,154,1,"485","baggy","false",-1.083,1,5,6.17
348,159,156,1,"483","forgot","true",-1.093,1,6,9.799
349,159,158,1,"464","tinder","false",-1.195,1,6,5.624
350,159,166,1,"502","fatal","true",-0.992,1,5,8.719
351,159,167,1,"1,010","immeasurably","true",1.717,1,12,5.342
352,159,168,1,"471","publicly","true",-1.157,1,8,9.103
353,159,175,1,"624","uncritical","false",-0.341,1,10,5.075
354,159,176,1,"496","daughters","true",-1.024,1,9,8.221
355,159,180,1,"545","acquaint","false",-0.763,1,8,5.118
356,159,181,1,"663","skyway","false",-0.133,1,6,4.875
357,159,186,1,"437","stake","true",-1.339,1,5,8.418
358,159,187,1,"747","leashes","false",0.315,1,7,5.505
359,159,196,1,"422","driving","true",-1.419,1,7,10.016
360,159,198,1,"604","authority","true",-0.448,1,9,10.068
361,159,204,1,"666","synagogue","true",-0.117,1,9,6.79
362,159,207,1,"551","alienated","true",-0.731,1,9,6.454
363,159,214,1,"669","culprit","false",-0.101,1,7,7.309
364,159,215,1,"703","selected","false",0.08,1,8,9.946
365,159,220,1,"555","materials","false",-0.709,1,9,10.217
366,159,222,1,"510","handle","false",-0.949,1,6,10.747
367,159,223,1,"721","defends","true",0.176,1,7,6.611
368,159,229,1,"722","newscast","true",0.181,1,8,5.263
369,159,231,1,"918","twitter","false",1.227,1,7,3.367
370,159,233,1,"558","steadily","true",-0.693,1,8,7.756
371,159,234,1,"716","freeboard","false",0.149,1,9,2.639
372,159,235,1,"603","debtor","false",-0.453,1,6,5.733
373,159,237,1,"559","tango","true",-0.688,1,5,6.869
374,159,238,1,"528","sofa","false",-0.853,1,4,7.323
375,159,239,1,"537","humid","true",-0.805,1,5,6.471
376,159,240,1,"765","adheres","true",0.411,1,7,5.572
377,159,243,1,"798","lovelies","true",0.587,1,8,3.526
378,159,245,1,"622","documentation","false",-0.352,1,13,10.439
379,159,247,1,"555","unreal","false",-0.709,1,6,6.863
380,159,256,1,"614","awnings","false",-0.395,1,7,2.708
381,159,257,1,"564","bogus","false",-0.661,1,5,8.503
382,159,262,1,"638","parish","false",-0.267,1,6,7.214
383,159,267,1,"701","sanctify","true",0.069,1,8,4.585
384,159,270,1,"788","waterskiing","false",0.533,1,11,4.718
385,159,271,1,"784","melodrama","false",0.512,1,9,5.595
386,159,275,1,"915","crispness","false",1.211,1,9,4.382
387,159,277,1,"563","examiner","true",-0.667,1,8,6.87
388,159,278,1,"580","furnishing","true",-0.576,1,10,5.03
389,159,283,1,"630","resurface","false",-0.309,1,9,5.118
390,159,287,1,"879","splendid","true",1.019,1,8,6.915
391,159,289,1,"485","accent","false",-1.083,1,6,8.559
392,159,291,1,"617","detraction","true",-0.379,1,10,4.277
393,159,292,1,"639","muggers","false",-0.261,1,7,5.106
394,159,293,1,"496","repeats","false",-1.024,1,7,7.811
395,159,294,1,"544","digesting","false",-0.768,1,9,5.472
396,159,297,1,"586","cooperation","false",-0.544,1,11,9.198
397,159,299,1,"564","exploratory","false",-0.661,1,11,6.035
398,159,302,1,"624","kerchief","false",-0.341,1,8,3.912
399,159,303,1,"718","hemoglobin","true",0.16,1,10,7.17
400,159,305,1,"592","Gorgon","false",-0.512,1,6,4.304
401,159,308,1,"741","dismayed","false",0.283,1,8,6.394
402,159,310,1,"559","remarked","false",-0.688,1,8,7.393
403,159,311,1,"573","railroads","true",-0.613,1,9,7.518
404,159,312,1,"604","screenings","false",-0.448,1,10,5.565
405,159,313,1,"594","Moscow's","false",-0.501,1,8,5.595
406,159,320,1,"517","robbery","true",-0.912,1,7,7.676
407,159,321,1,"651","peckish","false",-0.197,1,7,3.045
408,159,322,1,"620","widen","true",-0.363,1,5,6.444
409,159,325,1,"712","earnings","false",0.128,1,8,8.418
410,159,326,1,"1,147","undulating","false",2.448,1,10,5.118
411,159,327,1,"573","beneath","true",-0.613,1,7,8.663
412,159,329,1,"681","emancipate","false",-0.037,1,10,4.331
413,159,332,1,"528","nonsmoker","false",-0.853,1,9,4.248
414,159,336,1,"618","costumes","false",-0.373,1,8,7.344
415,159,339,1,"604","warranty","true",-0.448,1,8,9.434
416,159,341,1,"753","spillover","true",0.347,1,9,6.019
417,159,342,1,"774","billiard","true",0.459,1,8,5.565
418,159,344,1,"555","bedfast","false",-0.709,1,7,0
419,159,352,1,"718","prerogative","false",0.16,1,11,5.911
420,159,356,1,"769","rheumatic","false",0.432,1,9,4.22
421,159,358,1,"607","treasuries","false",-0.432,1,10,5.472
422,159,359,1,"679","stab","true",-0.048,1,4,7.402
423,159,362,1,"731","neurological","true",0.229,1,12,6.846
424,159,363,1,"731","diaphragms","false",0.229,1,10,4.127
425,159,364,1,"550","programming","false",-0.736,1,11,11.204
426,159,370,1,"802","alloted","false",0.608,1,7,5.153
427,159,373,1,"560","trucking","false",-0.683,1,8,6.229
428,159,380,1,"706","unmistakable","false",0.096,1,12,6.142
429,159,382,1,"636","oversize","false",-0.277,1,8,5.793
430,159,383,1,"600","ragged","true",-0.469,1,6,7.033
431,159,389,1,"776","styled","true",0.469,1,6,6.397
432,159,392,1,"622","whitening","false",-0.352,1,9,7.612
433,159,393,1,"617","pandemic","false",-0.379,1,8,4.7
434,159,394,1,"663","brisker","false",-0.133,1,7,3.135
435,159,396,1,"594","effective","true",-0.501,1,9,10.422
436,159,398,1,"527","cheating","true",-0.859,1,8,8.087
437,159,405,1,"730","Faustus","false",0.224,1,7,6.161
438,159,406,1,"695","mirthless","true",0.037,1,9,2.398
439,159,407,1,"574","exhaustion","false",-0.608,1,10,6.853
440,159,411,1,"872","limitation","false",0.981,1,10,8.505
441,159,413,1,"677","autocrats","true",-0.059,1,9,4.522
442,159,416,1,"585","significance","false",-0.549,1,12,8.702
443,159,417,1,"955","circumflex","false",1.424,1,10,4.92
444,159,418,1,"913","vertebrae","false",1.2,1,9,5.142
445,159,419,1,"627","purchases","false",-0.325,1,9,8.45
446,159,422,1,"566","steamship","false",-0.651,1,9,4.543
447,159,436,1,"632","angler","false",-0.299,1,6,5.505
448,159,437,1,"727","provocative","true",0.208,1,11,7.073
449,159,438,1,"564","suspenders","false",-0.661,1,10,5.333
450,159,440,1,"604","ladybug","false",-0.448,1,7,4.942
451,159,443,1,"718","quarterbacks","true",0.16,1,12,4.812
452,159,444,1,"667","dribbled","false",-0.112,1,8,5.268
453,159,445,1,"545","won","true",-0.763,1,3,10.224
454,159,447,1,"591","waive","false",-0.517,1,5,6.542
455,159,448,1,"687","aquamarine","false",-0.005,1,10,4.431
456,159,455,1,"971","intuitions","false",1.509,1,10,5.38
457,159,456,1,"618","viewfinder","false",-0.373,1,10,5.875
458,159,458,1,"646","modulations","false",-0.224,1,11,4.382
459,159,459,1,"778","profess","false",0.48,1,7,6.641
460,159,461,1,"620","wrecker","true",-0.363,1,7,4.277
461,159,466,1,"614","slouches","false",-0.395,1,8,3.738
462,159,471,1,"755","curtsy","false",0.357,1,6,3.332
463,159,473,1,"678","unionize","true",-0.053,1,8,3.638
464,159,474,1,"820","bulked","false",0.704,1,6,3.219
465,159,478,1,"583","inflict","false",-0.56,1,7,7.093
466,159,479,1,"707","hypnotic","true",0.101,1,8,8.24
467,159,480,1,"605","layoff","false",-0.443,1,6,5.846
468,159,482,1,"680","translator","true",-0.043,1,10,8.018
469,159,484,1,"599","token","false",-0.475,1,5,8.897
470,159,488,1,"708","parlayed","true",0.107,1,8,4.025
471,159,490,1,"507","fusty","false",-0.965,1,5,2.079
472,159,491,1,"685","rapidity","true",-0.016,1,8,4.82
473,159,495,1,"847","acrobatic","false",0.848,1,9,5.118
474,159,496,1,"703","ruffled","false",0.08,1,7,5.147
475,159,497,1,"701","plotted","false",0.069,1,7,6.688
476,159,499,1,"579","seductive","false",-0.581,1,9,6.415
477,160,1,1,"1,083","undomesticated","false",1.71,1,14,2.89
478,160,3,1,"908","desiccate","false",0.925,1,9,0.693
479,160,5,1,"682","nauseous","true",-0.09,1,8,5.565
480,160,8,1,"732","glean","true",0.135,1,5,5.71
481,160,11,1,"777","noisy","false",0.337,1,5,7.918
482,160,12,1,"645","replay","false",-0.256,1,6,7.845
483,160,14,1,"714","tersely","true",0.054,1,7,4.394
484,160,17,1,"668","subdivision","false",-0.153,1,11,6.991
485,160,18,1,"961","Latinize","false",1.163,1,8,0
486,160,19,1,"705","waterproof","true",0.013,1,10,6.765
487,160,20,1,"761","circuitous","false",0.265,1,10,4.331
488,160,21,1,"697","adhesives","false",-0.022,1,9,5.075
489,160,23,1,"626","fouled","false",-0.341,1,6,6.144
490,160,25,1,"658","vermin","false",-0.197,1,6,6.477
491,160,27,1,"550","increases","true",-0.682,1,9,9.421
492,160,29,1,"540","retain","false",-0.727,1,6,8.613
493,160,31,1,"721","wasted","true",0.085,1,6,8.774
494,160,32,1,"765","reimbursement","false",0.283,1,13,7.507
495,160,33,1,"638","tenors","true",-0.287,1,6,5.724
496,160,34,1,"678","hallucinogenic","false",-0.108,1,14,5.878
497,160,37,1,"957","typescript","false",1.145,1,10,4.234
498,160,38,1,"632","sunlight","false",-0.314,1,8,7.871
499,160,39,1,"646","intimately","true",-0.251,1,10,6.878
500,160,42,1,"616","permits","true",-0.386,1,7,8.558
501,160,43,1,"677","molesting","false",-0.112,1,9,6.021
502,160,46,1,"546","escape's","false",-0.7,1,8,1.386
503,160,47,1,"570","headstones","true",-0.592,1,10,3.892
504,160,56,1,"935","phlegm","true",1.046,1,6,5.03
505,160,62,1,"639","poster","true",-0.283,1,6,10.12
506,160,64,1,"614","flatly","false",-0.395,1,6,6.377
507,160,68,1,"782","skimpy","true",0.359,1,6,6.29
508,160,71,1,"706","neutron","false",0.018,1,7,7.723
509,160,76,1,"798","rapier","true",0.431,1,6,6.033
510,160,77,1,"676","footbridge","false",-0.117,1,10,3.258
511,160,80,1,"1,736","abutments","false",4.641,1,9,2.89
512,160,81,1,"566","sweater","false",-0.61,1,7,7.181
513,160,88,1,"1,033","system's","true",1.486,1,8,7.582
514,160,89,1,"919","assiduous","false",0.974,1,9,3.219
515,160,90,1,"816","renegade","false",0.512,1,8,7.701
516,160,91,1,"1,111","earsplitting","false",1.836,1,12,1.946
517,160,92,1,"590","antique","true",-0.503,1,7,8.116
518,160,93,1,"701","corvette","false",-0.004,1,8,7.321
519,160,97,1,"675","depended","false",-0.121,1,8,7.032
520,160,98,1,"666","comrade","false",-0.162,1,7,6.701
521,160,100,1,"841","vocalize","false",0.624,1,8,4.357
522,160,102,1,"656","mainly","true",-0.206,1,6,9.748
523,160,104,1,"622","progression","false",-0.359,1,11,7.802
524,160,105,1,"639","honest","false",-0.283,1,6,10.002
525,160,109,1,"842","motives","false",0.628,1,7,8.077
526,160,110,1,"664","scarcely","false",-0.171,1,8,6.609
527,160,111,1,"790","rifled","true",0.395,1,6,5.447
528,160,112,1,"568","sneezing","false",-0.601,1,8,5.561
529,160,113,1,"999","orchestras","true",1.333,1,10,6.12
530,160,118,1,"708","unsurmountable","true",0.027,1,14,3.332
531,160,119,1,"1,395","Shepard","true",3.111,1,7,6.777
532,160,120,1,"801","preferring","false",0.444,1,10,6.541
533,160,121,1,"756","Alicia","false",0.242,1,6,7.002
534,160,122,1,"673","trait","false",-0.13,1,5,7.642
535,160,125,1,"801","axles","true",0.444,1,5,6.562
536,160,132,1,"869","diagnose","false",0.75,1,8,7.28
537,160,133,1,"921","smorgasbord","false",0.983,1,11,3.989
538,160,135,1,"682","trite","true",-0.09,1,5,6.319
539,160,136,1,"691","grins","false",-0.049,1,5,6.786
540,160,138,1,"585","moreover","true",-0.525,1,8,8.897
541,160,140,1,"770","hundredth","true",0.305,1,9,5.187
542,160,141,1,"691","dispersion","true",-0.049,1,10,6.174
543,160,145,1,"1,016","anything","true",1.409,1,8,12.277
544,160,148,1,"1,068","overcompensate","false",1.643,1,14,3.178
545,160,150,1,"770","stomping","true",0.305,1,8,6.284
546,160,151,1,"672","ode","true",-0.135,1,3,6.677
547,160,152,1,"628","salty","true",-0.332,1,5,6.845
548,160,153,1,"595","drunken","true",-0.48,1,7,7.367
549,160,154,1,"542","cheerio","true",-0.718,1,7,5.489
550,160,156,1,"764","silhouettes","true",0.278,1,11,5.106
551,160,157,1,"794","reticence","false",0.413,1,9,4.7
552,160,158,1,"735","flora","false",0.148,1,5,7.228
553,160,161,1,"777","impeccably","true",0.337,1,10,5.03
554,160,163,1,"638","worldly","false",-0.287,1,7,7.034
555,160,164,1,"787","conservative","true",0.382,1,12,9.735
556,160,165,1,"635","homemaker","true",-0.301,1,9,4.852
557,160,174,1,"901","loveliest","false",0.893,1,9,3.951
558,160,175,1,"732","advertisers","false",0.135,1,11,7.82
559,160,180,1,"1,168","melancholy","false",2.092,1,10,5.905
560,160,181,1,"623","daunted","false",-0.355,1,7,4.564
561,160,182,1,"622","tepees","true",-0.359,1,6,1.792
562,160,185,1,"832","production","false",0.584,1,10,10.647
563,160,188,1,"832","thrilled","false",0.584,1,8,7.626
564,160,189,1,"1,293","insomniacs","false",2.653,1,10,3.829
565,160,193,1,"766","carpetbagger","true",0.287,1,12,2.639
566,160,195,1,"877","degenerated","false",0.786,1,11,6.089
567,160,196,1,"860","edge","true",0.709,1,4,10.542
568,160,202,1,"828","plundering","false",0.566,1,10,5.278
569,160,206,1,"1,111","romanticizing","false",1.836,1,13,3.689
570,160,207,1,"703","taped","true",0.004,1,5,8.131
571,160,209,1,"807","coalface","true",0.471,1,8,0
572,160,210,1,"671","kettledrum","true",-0.139,1,10,2.079
573,160,211,1,"835","pillage","true",0.597,1,7,5.919
574,160,212,1,"782","colonist","false",0.359,1,8,4.673
575,160,214,1,"974","boathouse","false",1.221,1,9,5.088
576,160,216,1,"852","cumulate","true",0.673,1,8,1.946
577,160,219,1,"871","Goth","true",0.759,1,4,7.624
578,160,220,1,"700","established","false",-0.009,1,11,10.092
579,160,222,1,"758","duodenum","true",0.251,1,8,3.611
580,160,223,1,"811","astronaut","true",0.489,1,9,6.91
581,160,225,1,"773","clang","true",0.319,1,5,5.617
582,160,226,1,"762","paradigms","true",0.269,1,9,7.08
583,160,227,1,"513","olive","false",-0.848,1,5,7.99
584,160,228,1,"807","precocious","true",0.471,1,10,5.153
585,160,229,1,"673","intellectual","true",-0.13,1,12,9.303
586,160,235,1,"586","sin","false",-0.521,1,3,9.767
587,160,236,1,"1,296","photorealism","false",2.666,1,12,4.304
588,160,237,1,"621","maneuvering","false",-0.364,1,11,6.436
589,160,238,1,"633","technology","false",-0.31,1,10,11.621
590,160,242,1,"757","conceptual","false",0.247,1,10,7.673
591,160,243,1,"911","unexpected","true",0.938,1,10,8.356
592,160,244,1,"687","squad","true",-0.067,1,5,8.479
593,160,245,1,"950","vexes","false",1.113,1,5,2.89
594,160,246,1,"1,707","sanguineous","true",4.511,1,11,0
595,160,247,1,"776","conspirator","false",0.332,1,11,5.004
596,160,248,1,"736","feasibility","true",0.153,1,11,7.356
597,160,249,1,"541","juggle","true",-0.723,1,6,7.017
598,160,252,1,"751","infatuate","true",0.22,1,9,0
599,160,253,1,"702","bootlegging","true",0,1,11,4.875
600,160,255,1,"745","mountainous","false",0.193,1,11,6.194
601,160,257,1,"784","overstep","true",0.368,1,8,4.094
602,160,259,1,"792","minibus","false",0.404,1,7,4.344
603,160,260,1,"723","slum","true",0.094,1,4,6.146
604,160,262,1,"555","rip","false",-0.66,1,3,8.99
605,160,264,1,"615","isolate","true",-0.391,1,7,8.053
606,160,265,1,"899","among","false",0.884,1,5,11.006
607,160,268,1,"576","turnpikes","false",-0.566,1,9,3.611
608,160,271,1,"620","raw","true",-0.368,1,3,9.422
609,160,272,1,"662","underclothing","true",-0.18,1,13,4.454
610,160,275,1,"760","humbug","true",0.26,1,6,5.288
611,160,276,1,"630","comet","false",-0.323,1,5,8.25
612,160,280,1,"609","exhorting","false",-0.417,1,9,4.654
613,160,281,1,"1,109","litigant","true",1.827,1,8,5.733
614,160,282,1,"798","kleptomania","false",0.431,1,11,2.773
615,160,283,1,"721","modestly","false",0.085,1,8,5.799
616,160,284,1,"534","forgery","true",-0.754,1,7,7.622
617,160,285,1,"462","windup","false",-1.077,1,6,4.673
618,160,286,1,"447","pushing","true",-1.145,1,7,9.166
619,160,287,1,"442","grower","true",-1.167,1,6,5.323
620,160,289,1,"710","ruthlessness","true",0.036,1,12,4.7
621,160,290,1,"561","shed","true",-0.633,1,4,8.737
622,160,291,1,"685","buoy","true",-0.076,1,4,5.1
623,160,292,1,"467","math","true",-1.055,1,4,9.82
624,160,293,1,"575","holster","true",-0.57,1,7,6.229
625,160,294,1,"770","scruff","false",0.305,1,6,4.942
626,160,296,1,"696","proven","true",-0.027,1,6,9.731
627,160,299,1,"667","dictation","false",-0.157,1,9,6.075
628,160,300,1,"493","relieving","false",-0.938,1,9,6.151
629,160,302,1,"756","dosages","false",0.242,1,7,6.292
630,160,304,1,"975","befoul","false",1.225,1,6,2.639
631,160,306,1,"714","froth","true",0.054,1,5,6.009
632,160,307,1,"740","ghostlike","false",0.171,1,9,1.946
633,160,308,1,"577","truant","false",-0.561,1,6,3.97
634,160,309,1,"603","transporter","true",-0.444,1,11,7.608
635,160,315,1,"835","fluctuates","false",0.597,1,10,5.231
636,160,316,1,"614","misbranded","true",-0.395,1,10,1.099
637,160,319,1,"913","piddling","false",0.947,1,8,4.575
638,160,320,1,"516","seasons","true",-0.835,1,7,8.448
639,160,322,1,"751","leeway","true",0.22,1,6,6.136
640,160,323,1,"769","attainable","false",0.301,1,10,5.958
641,160,326,1,"641","vacate","false",-0.274,1,6,5.288
642,160,327,1,"713","trafficker","false",0.049,1,10,4.317
643,160,328,1,"669","aching","true",-0.148,1,6,7.002
644,160,330,1,"938","resonances","true",1.059,1,10,5.298
645,160,332,1,"516","enjoys","false",-0.835,1,6,8.091
646,160,334,1,"745","inhabitant","false",0.193,1,10,5.357
647,160,335,1,"645","convolute","false",-0.256,1,9,1.946
648,160,339,1,"574","firewood","true",-0.575,1,8,5.796
649,160,340,1,"864","mayoral","false",0.727,1,7,4.533
650,160,341,1,"1,021","longbow","false",1.432,1,7,5.948
651,160,342,1,"1,227","nonunion","true",2.357,1,8,2.708
652,160,343,1,"630","gladiator","false",-0.323,1,9,5.981
653,160,346,1,"549","shaft","true",-0.687,1,5,8.761
654,160,348,1,"723","reflective","false",0.094,1,10,7.041
655,160,349,1,"609","moonlike","false",-0.417,1,8,0
656,160,350,1,"659","inconsistency","false",-0.193,1,13,7
657,160,351,1,"557","sites","true",-0.651,1,5,11.328
658,160,353,1,"662","recommending","false",-0.18,1,12,7.432
659,160,355,1,"834","blowgun","true",0.592,1,7,3.045
660,160,356,1,"1,290","doubt","true",2.639,1,5,10.792
661,160,357,1,"882","rub","false",0.808,1,3,8.35
662,160,359,1,"1,029","emollient","false",1.468,1,9,1.609
663,160,360,1,"544","projection","true",-0.709,1,10,8.149
664,160,361,1,"569","bounty","false",-0.597,1,6,7.439
665,160,363,1,"560","grapes","false",-0.637,1,6,7.155
666,160,365,1,"614","upgrading","true",-0.395,1,9,8.81
667,160,367,1,"871","gangland","false",0.759,1,8,4.19
668,160,370,1,"823","kaboom","false",0.543,1,6,6.043
669,160,372,1,"968","marketable","false",1.194,1,10,6.461
670,160,374,1,"605","visitor","true",-0.435,1,7,7.877
671,160,376,1,"929","frugally","false",1.019,1,8,3.932
672,160,377,1,"866","invisible","false",0.736,1,9,8.879
673,160,379,1,"648","biscuit","true",-0.242,1,7,6.395
674,160,381,1,"1,642","guardedness","false",4.219,1,11,1.099
675,160,386,1,"605","sterilize","false",-0.435,1,9,5.659
676,160,387,1,"726","curate","true",0.108,1,6,3.497
677,160,390,1,"567","passed","false",-0.606,1,6,10.32
678,160,391,1,"518","stroking","false",-0.826,1,8,7.673
679,160,394,1,"769","fleabag","true",0.301,1,7,2.89
680,160,396,1,"642","tempest","false",-0.269,1,7,8.041
681,160,399,1,"751","deductible","false",0.22,1,10,7.208
682,160,404,1,"867","exhibitionism","false",0.741,1,13,4.796
683,160,405,1,"783","overhead","false",0.364,1,8,9.049
684,160,406,1,"888","erred","false",0.835,1,5,5.817
685,160,408,1,"645","presenting","false",-0.256,1,10,8.308
686,160,409,1,"1,472","rattan","true",3.456,1,6,4.745
687,160,410,1,"715","anaerobic","true",0.058,1,9,6.418
688,160,413,1,"571","broomstick","false",-0.588,1,10,5.1
689,160,415,1,"753","organismic","true",0.229,1,10,2.197
690,160,416,1,"752","tyrants","true",0.224,1,7,7.03
691,160,418,1,"612","closeup","false",-0.404,1,7,5.889
692,160,419,1,"527","bagged","true",-0.786,1,6,6.93
693,160,421,1,"711","connote","true",0.04,1,7,4.454
694,160,424,1,"521","destined","false",-0.812,1,8,7.588
695,160,426,1,"556","crusades","false",-0.655,1,8,6.714
696,160,427,1,"749","shouldered","true",0.211,1,10,4.615
697,160,429,1,"569","tidy","false",-0.597,1,4,6.703
698,160,430,1,"711","vagina","true",0.04,1,6,8.175
699,160,432,1,"1,057","maximums","true",1.593,1,8,4.956
700,160,434,1,"743","handclasp","true",0.184,1,9,1.386
701,160,437,1,"833","cymbal","false",0.588,1,6,5.953
702,160,439,1,"886","absurdly","false",0.826,1,8,5.756
703,160,442,1,"1,140","northeaster","false",1.966,1,11,1.386
704,160,444,1,"933","speculators","false",1.037,1,11,6.399
705,160,447,1,"663","sprays","false",-0.175,1,6,6.613
706,160,448,1,"780","Budapest","false",0.35,1,8,7.715
707,160,450,1,"694","sedimentation","true",-0.036,1,13,4.5
708,160,452,1,"636","toothache","true",-0.296,1,9,4.736
709,160,454,1,"764","cajole","true",0.278,1,6,3.951
710,160,456,1,"897","warrant","false",0.875,1,7,8.776
711,160,457,1,"752","resided","true",0.224,1,7,6.107
712,160,458,1,"662","grinders","false",-0.18,1,8,4.804
713,160,459,1,"645","stead","true",-0.256,1,5,6.516
714,160,465,1,"836","communion","false",0.601,1,9,7.001
715,160,468,1,"816","lackey","true",0.512,1,6,6.279
716,160,473,1,"698","lobbies","true",-0.018,1,7,5.613
717,160,475,1,"626","continues","false",-0.341,1,9,9.706
718,160,476,1,"720","Sundays","false",0.081,1,7,7.625
719,160,479,1,"544","plenty","false",-0.709,1,6,10.031
720,160,482,1,"618","swimmer","false",-0.377,1,7,6.46
721,160,485,1,"740","Brandon","true",0.171,1,7,8.421
722,160,488,1,"780","semicolon","true",0.35,1,9,6.317
723,160,489,1,"681","disallowed","true",-0.094,1,10,6.282
724,160,491,1,"719","huge","false",0.076,1,4,10.55
725,160,493,1,"858","elevator","false",0.7,1,8,8.076
726,160,495,1,"635","pearl","true",-0.301,1,5,9.282
727,160,499,1,"701","relying","false",-0.004,1,7,7.832
728,161,3,1,"474","pins","false",-1.103,1,4,8.932
729,161,5,1,"576","tedious","false",-0.736,1,7,7.77
730,161,6,1,"1,366","penitent","true",2.102,1,8,4.357
731,161,8,1,"642","exchanges","true",-0.499,1,9,7.975
732,161,11,1,"652","stall","false",-0.463,1,5,7.935
733,161,12,1,"968","seamstress","true",0.672,1,10,4.942
734,161,15,1,"940","consultation","true",0.571,1,12,7.892
735,161,17,1,"1,853","irreplaceable","false",3.851,1,13,5.717
736,161,19,1,"998","daredevil","false",0.78,1,9,7.936
737,161,21,1,"672","exude","false",-0.392,1,5,4.454
738,161,29,1,"675","mister","true",-0.381,1,6,7.688
739,161,32,1,"536","blacks","true",-0.88,1,6,9.282
740,161,34,1,"1,031","college's","false",0.898,1,9,5.864
741,161,36,1,"1,453","beside","true",2.414,1,6,8.839
742,161,37,1,"669","warehouses","true",-0.402,1,10,6.477
743,161,40,1,"822","caddie","false",0.147,1,6,4.71
744,161,43,1,"570","ash","true",-0.758,1,3,8.187
745,161,48,1,"694","Eskimos","false",-0.313,1,7,5.434
746,161,49,1,"690","tagged","false",-0.327,1,6,7.987
747,161,51,1,"585","whale","false",-0.704,1,5,7.728
748,161,52,1,"567","infest","false",-0.769,1,6,4.883
749,161,54,1,"657","passage","false",-0.445,1,7,9.098
750,161,56,1,"537","knee","true",-0.877,1,4,8.878
751,161,57,1,"3,345","extravaganzas","true",9.211,1,13,3.85
752,161,61,1,"620","bookshelf","false",-0.578,1,9,7.025
753,161,64,1,"1,432","pressurization","true",2.339,1,14,3.784
754,161,66,1,"628","toys","false",-0.55,1,4,9.637
755,161,67,1,"634","pollution","true",-0.528,1,9,8.509
756,161,68,1,"572","soundness","false",-0.751,1,9,6.043
757,161,69,1,"519","first","false",-0.941,1,5,13.16
758,161,70,1,"503","crashed","true",-0.999,1,7,8.597
759,161,72,1,"1,170","sulky","false",1.397,1,5,3.932
760,161,74,1,"2,088","hearers","true",4.695,1,7,4.248
761,161,75,1,"484","culture","false",-1.067,1,7,10.554
762,161,77,1,"492","leaning","false",-1.038,1,7,8.005
763,161,79,1,"993","diatribe","false",0.762,1,8,6.758
764,161,80,1,"904","journalists","true",0.442,1,11,8.385
765,161,81,1,"917","typographic","false",0.489,1,11,5.513
766,161,90,1,"610","appears","false",-0.614,1,7,10.644
767,161,96,1,"691","organic","true",-0.323,1,7,8.619
768,161,97,1,"528","edges","true",-0.909,1,5,9.093
769,161,98,1,"677","untapped","false",-0.374,1,8,6.861
770,161,101,1,"673","rhythmic","false",-0.388,1,8,6.765
771,161,104,1,"1,103","vasectomy","false",1.157,1,9,5.878
772,161,105,1,"614","luxuries","false",-0.6,1,8,5.945
773,161,109,1,"835","continually","false",0.194,1,11,8.554
774,161,111,1,"820","eminent","false",0.14,1,7,6.642
775,161,112,1,"753","flotation","false",-0.101,1,9,5.081
776,161,117,1,"555","refute","true",-0.812,1,6,7.72
777,161,121,1,"520","smoke","true",-0.938,1,5,9.72
778,161,122,1,"882","uniqueness","false",0.363,1,10,6.548
779,161,124,1,"1,242","conservatism","true",1.656,1,12,7.165
780,161,125,1,"951","logarithm","false",0.611,1,9,5.268
781,161,126,1,"906","pretrial","false",0.449,1,8,4.754
782,161,130,1,"499","plants","true",-1.013,1,6,9.744
783,161,131,1,"559","distract","false",-0.798,1,8,7.083
784,161,134,1,"711","hysteric","true",-0.251,1,8,3.638
785,161,135,1,"601","fragments","false",-0.647,1,9,7.932
786,161,137,1,"870","fastener","false",0.32,1,8,4.585
787,161,138,1,"725","bootless","false",-0.201,1,8,2.773
788,161,142,1,"532","pillows","true",-0.895,1,7,6.882
789,161,143,1,"607","refrigerator","true",-0.625,1,12,7.52
790,161,151,1,"579","strays","false",-0.726,1,6,5.846
791,161,152,1,"605","quack","true",-0.632,1,5,6.443
792,161,153,1,"667","needlessly","true",-0.41,1,10,6.529
793,161,154,1,"733","uncommitted","true",-0.172,1,11,5.226
794,161,160,1,"774","teams","true",-0.025,1,5,10.167
795,161,161,1,"755","airy","false",-0.093,1,4,5.892
796,161,162,1,"1,058","slung","false",0.995,1,5,5.447
797,161,163,1,"1,116","denominational","true",1.203,1,14,5.106
798,161,164,1,"641","glossary","false",-0.503,1,8,7.82
799,161,172,1,"558","Oxford","false",-0.801,1,6,9.058
800,161,174,1,"716","Portland's","true",-0.234,1,10,4.234
801,161,176,1,"610","Ontario","true",-0.614,1,7,9.944
802,161,177,1,"665","suffering","true",-0.417,1,9,9.262
803,161,178,1,"729","bluejay","false",-0.187,1,7,4.419
804,161,179,1,"656","shouldn't","true",-0.449,1,9,10.313
805,161,181,1,"956","magnetize","false",0.629,1,9,2.773
806,161,182,1,"662","bearskin","false",-0.428,1,8,3.178
807,161,185,1,"485","walnuts","true",-1.063,1,7,5.659
808,161,186,1,"636","forebears","false",-0.521,1,9,5.069
809,161,189,1,"503","rusty","true",-0.999,1,5,8.072
810,161,190,1,"567","where'd","false",-0.769,1,7,6.047
811,161,193,1,"842","Jamestown","true",0.219,1,9,5.743
812,161,194,1,"787","cyanide","false",0.022,1,7,6.77
813,161,198,1,"603","furs","false",-0.639,1,4,5.811
814,161,199,1,"494","month","false",-1.031,1,5,11.242
815,161,200,1,"674","mechanized","false",-0.384,1,10,5.631
816,161,201,1,"573","outlet","false",-0.747,1,6,8.211
817,161,202,1,"498","happened","true",-1.017,1,8,10.946
818,161,203,1,"575","riddles","false",-0.74,1,7,5.924
819,161,204,1,"641","impresses","false",-0.503,1,9,5.694
820,161,206,1,"527","sky's","false",-0.913,1,5,5.165
821,161,207,1,"759","statehouse","true",-0.079,1,10,4.06
822,161,208,1,"692","cobweb","false",-0.32,1,6,4.127
823,161,209,1,"1,590","nondescriptly","false",2.906,1,13,0
824,161,210,1,"480","intruders","true",-1.081,1,9,6.319
825,161,211,1,"772","sorbet","false",-0.032,1,6,3.466
826,161,213,1,"1,618","resplendent","false",3.007,1,11,5.844
827,161,216,1,"999","enchained","false",0.783,1,9,3.219
828,161,217,1,"1,173","scuffmark","true",1.408,1,9,0
829,161,218,1,"506","expel","false",-0.988,1,5,6.284
830,161,219,1,"499","range","false",-1.013,1,5,10.971
831,161,222,1,"1,005","hemorrhage","false",0.805,1,10,5.323
832,161,223,1,"752","hothouse","true",-0.104,1,8,4.736
833,161,224,1,"604","voiced","false",-0.636,1,6,7.395
834,161,225,1,"785","vetoed","true",0.014,1,6,6.178
835,161,229,1,"902","fuzzed","true",0.435,1,6,3.738
836,161,231,1,"567","decline","false",-0.769,1,7,8.711
837,161,239,1,"736","helm","true",-0.162,1,4,8.509
838,161,241,1,"677","petty","false",-0.374,1,5,8.38
839,161,242,1,"878","gynecologists","false",0.348,1,13,4.511
840,161,243,1,"615","modulation","false",-0.596,1,10,7.537
841,161,244,1,"940","bantam","false",0.571,1,6,6.976
842,161,247,1,"715","occurrences","false",-0.237,1,11,6.966
843,161,248,1,"1,087","matchwood","true",1.099,1,9,0
844,161,249,1,"588","chandeliers","true",-0.693,1,11,4.143
845,161,251,1,"1,104","threes","false",1.16,1,6,5.74
846,161,253,1,"758","sewers","false",-0.083,1,6,7.071
847,161,255,1,"452","being","true",-1.182,1,5,12.8
848,161,256,1,"679","uneasy","true",-0.366,1,6,6.681
849,161,260,1,"588","weak","false",-0.693,1,4,9.748
850,161,264,1,"509","expired","false",-0.977,1,7,7.975
851,161,270,1,"429","flash","true",-1.265,1,5,9.783
852,161,272,1,"698","adrenal","false",-0.298,1,7,5.838
853,161,273,1,"509","projects","false",-0.977,1,8,10.338
854,161,274,1,"1,490","supervises","true",2.547,1,10,5.521
855,161,276,1,"736","jeweled","false",-0.162,1,7,7.738
856,161,277,1,"982","Tex","false",0.722,1,3,9.223
857,161,279,1,"515","pubs","false",-0.956,1,4,7.263
858,161,280,1,"564","disliked","false",-0.78,1,8,6.987
859,161,281,1,"574","Wilson","false",-0.744,1,6,9.652
860,161,285,1,"488","Alfred's","false",-1.053,1,8,3.638
861,161,291,1,"969","inhumanities","false",0.675,1,12,2.398
862,161,292,1,"542","vending","false",-0.859,1,7,6.633
863,161,294,1,"404","miles","false",-1.354,1,5,10.479
864,161,295,1,"670","pretending","true",-0.399,1,10,7.998
865,161,297,1,"934","wonderingly","true",0.55,1,11,2.833
866,161,302,1,"631","skilfully","false",-0.539,1,9,3.714
867,161,308,1,"739","councilwoman","false",-0.151,1,12,2.996
868,161,310,1,"578","undying","false",-0.729,1,7,5.93
869,161,314,1,"1,029","soldering","false",0.891,1,9,7.41
870,161,315,1,"1,027","implemented","false",0.884,1,11,9.495
871,161,316,1,"743","hoard","true",-0.137,1,5,6.271
872,161,317,1,"752","keenly","false",-0.104,1,6,5.557
873,161,319,1,"749","tow","false",-0.115,1,3,7.606
874,161,321,1,"484","time's","true",-1.067,1,6,6.664
875,161,326,1,"510","imports","false",-0.974,1,7,8.21
876,161,327,1,"650","FALSE","true",-0.471,1,5,0
877,161,333,1,"643","parodies","true",-0.496,1,8,6.378
878,161,335,1,"588","Roger","true",-0.693,1,5,9.955
879,161,336,1,"612","missile's","true",-0.607,1,9,3.434
880,161,338,1,"1,086","stigmata","false",1.096,1,8,4.875
881,161,339,1,"500","duet","true",-1.009,1,4,6.9
882,161,340,1,"620","snickered","false",-0.578,1,9,4.984
883,161,342,1,"626","dietary","true",-0.557,1,7,7.474
884,161,345,1,"781","fulfilling","false",0,1,10,7.339
885,161,347,1,"807","heartfelt","true",0.093,1,9,6.236
886,161,349,1,"666","spoiled","true",-0.413,1,7,7.581
887,161,351,1,"627","songful","false",-0.553,1,7,0
888,161,352,1,"1,044","foghorn","true",0.945,1,7,4.905
889,161,356,1,"593","doorknob","false",-0.675,1,8,5.215
890,161,361,1,"560","rebuilt","true",-0.794,1,7,7.828
891,161,362,1,"474","blunts","false",-1.103,1,6,4.205
892,161,366,1,"527","leavings","true",-0.913,1,8,2.833
893,161,367,1,"538","registering","false",-0.873,1,11,7.56
894,161,370,1,"509","day","true",-0.977,1,3,12.385
895,161,373,1,"577","York's","false",-0.733,1,6,6.26
896,161,380,1,"588","scornful","false",-0.693,1,8,4.585
897,161,381,1,"937","kaiser","true",0.56,1,6,7.57
898,161,382,1,"1,281","congruous","false",1.796,1,9,1.609
899,161,384,1,"952","Michelangelo's","false",0.614,1,14,4.025
900,161,385,1,"1,292","neoliberal","false",1.836,1,10,5.094
901,161,390,1,"565","Israel's","false",-0.776,1,8,6.756
902,161,391,1,"498","sheen","true",-1.017,1,5,6.657
903,161,393,1,"527","anthropology","false",-0.913,1,12,7.795
904,161,395,1,"812","availabilities","false",0.111,1,14,4.043
905,161,399,1,"609","civility","true",-0.618,1,8,6.513
906,161,401,1,"1,019","radiography","true",0.855,1,11,3.871
907,161,402,1,"639","quantity","true",-0.51,1,8,9.244
908,161,405,1,"916","stupidly","false",0.485,1,8,6.45
909,161,408,1,"677","therapists","false",-0.374,1,10,7.048
910,161,409,1,"950","ceramic","true",0.607,1,7,7.491
911,161,411,1,"932","stoked","false",0.542,1,6,5.429
912,161,412,1,"1,009","gentiles","false",0.819,1,8,7.132
913,161,413,1,"583","particularity","true",-0.711,1,13,4.111
914,161,417,1,"556","employee's","true",-0.808,1,10,6.151
915,161,423,1,"636","businessmen","false",-0.521,1,11,7.465
916,161,428,1,"909","rifleman's","false",0.46,1,10,1.946
917,161,431,1,"619","digress","true",-0.582,1,7,7.201
918,161,434,1,"740","cascaded","true",-0.147,1,8,5.159
919,161,435,1,"751","felon","true",-0.108,1,5,6.151
920,161,436,1,"1,004","Ethiopians","true",0.801,1,10,5.464
921,161,437,1,"1,046","glisten","false",0.952,1,7,4.369
922,161,438,1,"526","commands","false",-0.916,1,8,10.139
923,161,439,1,"546","sideways","true",-0.844,1,8,7.625
924,161,440,1,"698","lithe","false",-0.298,1,5,5.303
925,161,444,1,"1,348","ornithology","false",2.037,1,11,3.85
926,161,445,1,"643","fractionated","true",-0.496,1,12,5.063
927,161,446,1,"467","desired","true",-1.128,1,7,9.854
928,161,447,1,"501","nostrils","true",-1.006,1,8,6.583
929,161,449,1,"775","lessening","false",-0.022,1,9,5.814
930,161,453,1,"925","memoirs","true",0.517,1,7,6.604
931,161,455,1,"673","bimonthly","true",-0.388,1,9,6.697
932,161,456,1,"592","inventory","false",-0.679,1,9,8.855
933,161,459,1,"1,472","concertmaster","false",2.482,1,13,3.332
934,161,460,1,"1,428","convolution","true",2.324,1,11,5.231
935,161,461,1,"1,425","reprovingly","true",2.314,1,11,0
936,161,462,1,"645","remove","false",-0.489,1,6,10.691
937,161,465,1,"722","telescopes","false",-0.212,1,10,6.903
938,161,468,1,"721","tubing","false",-0.216,1,6,7.787
939,161,469,1,"554","coconut","false",-0.816,1,7,7.251
940,161,471,1,"789","classed","true",0.029,1,7,6.043
941,161,472,1,"528","doctor","false",-0.909,1,6,10.371
942,161,473,1,"593","lull","false",-0.675,1,4,6.168
943,161,481,1,"1,285","sassafras","true",1.811,1,9,4.382
944,161,482,1,"689","armchair","false",-0.331,1,8,6.415
945,161,483,1,"907","accounts","true",0.453,1,8,9.799
946,161,486,1,"740","stabs","false",-0.147,1,5,5.609
947,161,488,1,"772","perfunctory","true",-0.032,1,11,4.71
948,161,490,1,"814","uncertainties","false",0.119,1,13,6.182
949,161,493,1,"603","powerless","true",-0.639,1,9,7.104
950,161,494,1,"463","favoring","false",-1.142,1,8,6.465
951,161,495,1,"773","screenplay","false",-0.029,1,10,7.447
952,162,2,1,"699","nostril","false",-0.389,1,7,5.93
953,162,3,1,"1,117","pal's","false",0.965,1,5,4.344
954,162,7,1,"645","Joyce","true",-0.564,1,5,7.817
955,162,8,1,"653","shouting","true",-0.538,1,8,8.06
956,162,10,1,"576","arcade","false",-0.787,1,6,8.97
957,162,12,1,"721","bankroll","true",-0.317,1,8,5.956
958,162,15,1,"688","coastline","false",-0.424,1,9,6.184
959,162,17,1,"832","catalytic","false",0.042,1,9,6.417
960,162,18,1,"916","radioactivity","false",0.314,1,13,5.927
961,162,20,1,"1,085","sixties","false",0.862,1,7,7.583
962,162,21,1,"990","subscribed","false",0.554,1,10,8.207
963,162,25,1,"1,416","experimentations","false",1.934,1,16,3.135
964,162,28,1,"769","chafing","true",-0.162,1,7,4.762
965,162,32,1,"660","legally","true",-0.515,1,7,9.101
966,162,34,1,"727","reserved","true",-0.298,1,8,9.653
967,162,36,1,"868","retracted","true",0.159,1,9,6.155
968,162,37,1,"575","Amen","false",-0.79,1,4,7.897
969,162,39,1,"637","prostrate","false",-0.589,1,9,5.529
970,162,41,1,"1,085","sloping","false",0.862,1,7,6.157
971,162,43,1,"656","any","false",-0.528,1,3,13.945
972,162,44,1,"1,834","wholemeal","true",3.288,1,9,4.19
973,162,45,1,"1,260","tomorrow's","true",1.428,1,10,6.763
974,162,47,1,"1,365","syntactical","false",1.768,1,11,4.736
975,162,48,1,"801","photographers","true",-0.058,1,13,7.396
976,162,49,1,"1,681","eventfully","false",2.792,1,10,0
977,162,50,1,"750","roamed","false",-0.223,1,6,5.649
978,162,55,1,"609","zooming","true",-0.68,1,7,6.26
979,162,56,1,"656","bluejacket","true",-0.528,1,10,0
980,162,59,1,"603","Hebrew","false",-0.7,1,6,8.782
981,162,66,1,"1,101","iamb","true",0.913,1,4,2.303
982,162,68,1,"923","broncs","false",0.337,1,6,3.091
983,162,69,1,"1,534","sclerosis","false",2.316,1,9,7.018
984,162,72,1,"573","mule","false",-0.797,1,4,7.305
985,162,75,1,"724","seemly","true",-0.308,1,6,3.584
986,162,76,1,"952","umbilical","true",0.431,1,9,5.525
987,162,78,1,"982","agriculture","false",0.528,1,11,8.606
988,162,79,1,"1,403","advantageous","true",1.892,1,12,6.941
989,162,80,1,"801","publishers","false",-0.058,1,10,9.032
990,162,81,1,"915","competitively","false",0.311,1,13,6.192
991,162,83,1,"846","flyaway","false",0.087,1,7,3.689
992,162,85,1,"797","crouton","false",-0.071,1,7,3.784
993,162,87,1,"813","micron","true",-0.019,1,6,7.794
994,162,91,1,"708","permitting","false",-0.36,1,10,7.282
995,162,93,1,"534","grown","true",-0.923,1,5,9.274
996,162,94,1,"1,140","paneling","false",1.04,1,8,4.644
997,162,95,1,"702","glimmering","true",-0.379,1,10,4.234
998,162,96,1,"551","may","true",-0.868,1,3,13.192
999,162,97,1,"600","asylum","false",-0.709,1,6,7.436
1000,162,100,1,"675","navigable","true",-0.466,1,9,4.828
1001,162,101,1,"618","loners","false",-0.651,1,6,4.477
1002,162,102,1,"666","cannery","true",-0.496,1,7,4.89
1003,162,105,1,"728","endearments","false",-0.295,1,11,3.091
1004,162,106,1,"996","damsel","true",0.573,1,6,5.606
1005,162,107,1,"1,327","satinwood","false",1.645,1,9,0
1006,162,109,1,"812","backstroke","false",-0.023,1,10,5.05
1007,162,110,1,"1,289","correspondents","false",1.522,1,14,6.477
1008,162,112,1,"1,138","Dexedrine","true",1.033,1,9,4.564
1009,162,113,1,"1,168","amusedly","true",1.13,1,8,3.219
1010,162,114,1,"611","polarized","false",-0.674,1,9,6.457
1011,162,115,1,"1,323","girl","false",1.632,1,4,10.605
1012,162,116,1,"803","bedbug","false",-0.052,1,6,0.693
1013,162,118,1,"1,453","impartation","true",2.054,1,11,0
1014,162,119,1,"1,228","intrusions","false",1.325,1,10,5.468
1015,162,121,1,"569","deaf","false",-0.81,1,4,8.719
1016,162,122,1,"642","brat","true",-0.573,1,4,6.985
1017,162,123,1,"556","infants","true",-0.852,1,7,7.693
1018,162,125,1,"2,195","gardenias","false",4.457,1,9,3.135
1019,162,128,1,"747","haystack","true",-0.233,1,8,5.263
1020,162,130,1,"1,271","finder","false",1.464,1,6,8.399
1021,162,133,1,"708","applauded","false",-0.36,1,9,6.168
1022,162,134,1,"1,171","attired","true",1.14,1,7,4.585
1023,162,135,1,"769","nuthouse","false",-0.162,1,8,4.19
1024,162,136,1,"1,091","nonentity","true",0.881,1,9,3.784
1025,162,139,1,"793","reverses","true",-0.084,1,8,6.194
1026,162,141,1,"693","truce","false",-0.408,1,5,6.837
1027,162,143,1,"672","seldom","true",-0.476,1,6,8.399
1028,162,144,1,"650","alkaline","true",-0.547,1,8,6.629
1029,162,146,1,"1,158","aerate","false",1.098,1,6,4.883
1030,162,147,1,"570","carousel","true",-0.807,1,8,6.321
1031,162,148,1,"1,180","grandad","true",1.169,1,7,4.682
1032,162,151,1,"724","volition","false",-0.308,1,8,6.12
1033,162,154,1,"593","urbanism","true",-0.732,1,8,3.761
1034,162,156,1,"705","parcels","false",-0.369,1,7,5.976
1035,162,160,1,"598","pupils","false",-0.716,1,6,6.752
1036,162,162,1,"654","lawmakers","false",-0.534,1,9,6.9
1037,162,164,1,"533","sharks","true",-0.926,1,6,7.749
1038,162,167,1,"826","mannered","true",0.023,1,8,5.638
1039,162,168,1,"588","cooling","true",-0.748,1,7,8.232
1040,162,169,1,"494","pedals","true",-1.053,1,6,7.713
1041,162,175,1,"687","Doric","true",-0.428,1,5,4.277
1042,162,176,1,"553","swelling","true",-0.862,1,8,7.288
1043,162,178,1,"564","frequency","true",-0.826,1,9,10.021
1044,162,183,1,"620","Thomson","true",-0.645,1,7,7.663
1045,162,192,1,"652","slim","true",-0.541,1,4,8.218
1046,162,196,1,"724","irons","false",-0.308,1,5,7.758
1047,162,198,1,"574","myths","false",-0.794,1,5,8.195
1048,162,199,1,"1,475","assailant","true",2.125,1,9,5.861
1049,162,201,1,"676","dejected","false",-0.463,1,8,4.762
1050,162,203,1,"677","blinders","false",-0.46,1,8,5.771
1051,162,208,1,"1,386","determinants","true",1.837,1,12,5.521
1052,162,210,1,"749","invasion","false",-0.227,1,8,8.866
1053,162,211,1,"721","deducible","false",-0.317,1,9,2.944
1054,162,212,1,"799","Grecian","true",-0.065,1,7,4.382
1055,162,216,1,"779","hostility","true",-0.13,1,9,7.566
1056,162,217,1,"957","fumigation","false",0.447,1,10,3.714
1057,162,220,1,"1,958","redoubt","false",3.689,1,7,2.996
1058,162,223,1,"740","outport","false",-0.256,1,7,3.401
1059,162,225,1,"635","arch","true",-0.596,1,4,8.222
1060,162,226,1,"663","Keith","false",-0.505,1,5,9.785
1061,162,228,1,"574","veracity","false",-0.794,1,8,6.6
1062,162,229,1,"604","undulate","false",-0.696,1,8,3.526
1063,162,230,1,"469","shut","true",-1.134,1,4,9.888
1064,162,234,1,"1,009","chromosome","true",0.615,1,10,7.834
1065,162,238,1,"671","whimper","false",-0.479,1,7,6.192
1066,162,239,1,"992","supernaturalism","false",0.56,1,15,3.526
1067,162,241,1,"1,532","community","true",2.309,1,9,10.982
1068,162,247,1,"712","Eurasian","false",-0.347,1,8,5.176
1069,162,250,1,"558","lords","false",-0.845,1,5,8.04
1070,162,251,1,"713","black","true",-0.343,1,5,11.988
1071,162,253,1,"761","solemnity","false",-0.188,1,9,3.784
1072,162,256,1,"694","sewing","false",-0.405,1,6,8.014
1073,162,259,1,"1,493","titillate","false",2.183,1,9,3.526
1074,162,261,1,"1,219","unsympathetic","false",1.296,1,13,5.328
1075,162,264,1,"615","elders","false",-0.661,1,6,7.901
1076,162,266,1,"1,234","tenable","false",1.344,1,7,4.736
1077,162,268,1,"689","glassware","true",-0.421,1,9,5.549
1078,162,269,1,"1,548","legislators","true",2.361,1,11,7.602
1079,162,271,1,"1,551","sleeveless","true",2.371,1,10,5.024
1080,162,273,1,"708","burner","true",-0.36,1,6,7.045
1081,162,274,1,"644","duplex","true",-0.567,1,6,7.223
1082,162,279,1,"911","disengage","false",0.298,1,9,5.68
1083,162,282,1,"1,322","aloneness","true",1.629,1,9,3.091
1084,162,283,1,"771","Sally","false",-0.155,1,5,8.367
1085,162,287,1,"688","pickoff","false",-0.424,1,7,1.792
1086,162,288,1,"556","dredge","false",-0.852,1,6,5.697
1087,162,289,1,"1,466","dipswitch","false",2.096,1,9,3.689
1088,162,290,1,"1,172","extenuation","false",1.143,1,11,1.099
1089,162,291,1,"656","Brussels","false",-0.528,1,8,7.905
1090,162,293,1,"909","relating","false",0.292,1,8,9.018
1091,162,296,1,"1,256","indefensible","false",1.415,1,12,5.858
1092,162,297,1,"984","engendered","true",0.534,1,10,5.338
1093,162,298,1,"545","confusing","true",-0.887,1,9,9.077
1094,162,299,1,"754","maliciously","true",-0.211,1,11,5.73
1095,162,303,1,"704","negation","false",-0.372,1,8,6.745
1096,162,304,1,"871","Jess's","true",0.168,1,6,3.401
1097,162,306,1,"676","operate","false",-0.463,1,7,9.455
1098,162,307,1,"869","herbivore","false",0.162,1,9,4.317
1099,162,310,1,"673","subjectively","false",-0.473,1,12,5.892
1100,162,313,1,"942","sparkler","false",0.398,1,8,3.892
1101,162,314,1,"1,212","interrogator","false",1.273,1,12,4.19
1102,162,315,1,"859","Unitarianism","true",0.13,1,12,3.296
1103,162,316,1,"886","calibrating","true",0.217,1,11,5.407
1104,162,317,1,"561","Winston","false",-0.836,1,7,8.362
1105,162,319,1,"630","fairway","true",-0.612,1,7,6.023
1106,162,321,1,"670","typeface","true",-0.483,1,8,6.789
1107,162,323,1,"934","hipline","false",0.372,1,7,2.565
1108,162,325,1,"625","comedians","false",-0.628,1,9,5.756
1109,162,326,1,"711","stoop","false",-0.35,1,5,6.646
1110,162,327,1,"628","halves","false",-0.619,1,6,7.01
1111,162,329,1,"716","expediency","false",-0.334,1,10,5.513
1112,162,332,1,"609","preference","false",-0.68,1,10,9.345
1113,162,333,1,"1,034","forgone","true",0.696,1,7,4.06
1114,162,334,1,"677","emotional","true",-0.46,1,9,9.382
1115,162,337,1,"732","bards","true",-0.282,1,5,5.541
1116,162,338,1,"617","sinister","true",-0.654,1,8,7.845
1117,162,339,1,"800","Medicare","true",-0.062,1,8,8.095
1118,162,344,1,"506","tense","false",-1.014,1,5,7.939
1119,162,345,1,"535","sunset","true",-0.92,1,6,8.153
1120,162,346,1,"702","understand","true",-0.379,1,10,11.586
1121,162,347,1,"709","regulatory","false",-0.356,1,10,8.18
1122,162,349,1,"661","sandbars","false",-0.512,1,8,2.996
1123,162,353,1,"782","keno","true",-0.12,1,4,5.347
1124,162,354,1,"590","transcribe","true",-0.742,1,10,6.297
1125,162,355,1,"610","shocks","false",-0.677,1,6,7.455
1126,162,357,1,"552","booming","true",-0.865,1,7,6.701
1127,162,360,1,"659","oversimplify","true",-0.518,1,12,4.673
1128,162,362,1,"782","derisive","true",-0.12,1,8,4.997
1129,162,363,1,"683","peruse","true",-0.441,1,6,6.447
1130,162,364,1,"1,142","incomprehension","false",1.046,1,15,4.22
1131,162,365,1,"484","acne","true",-1.085,1,4,6.284
1132,162,366,1,"968","reproduces","true",0.483,1,10,5.468
1133,162,367,1,"1,165","ripcord","false",1.121,1,7,4.654
1134,162,370,1,"841","characters","true",0.071,1,10,10.864
1135,162,373,1,"900","disintegrate","false",0.262,1,12,7.439
1136,162,375,1,"666","epistle","false",-0.496,1,7,5.663
1137,162,377,1,"875","reelected","false",0.181,1,9,5.293
1138,162,381,1,"770","Eugene's","true",-0.159,1,8,3.871
1139,162,384,1,"785","cogently","false",-0.11,1,8,4.263
1140,162,389,1,"701","opposes","true",-0.382,1,7,7.078
1141,162,390,1,"992","monorail","true",0.56,1,8,6.234
1142,162,394,1,"826","guppy","false",0.023,1,5,4.466
1143,162,397,1,"812","buoys","false",-0.023,1,5,4.682
1144,162,400,1,"604","technique","true",-0.696,1,9,9.75
1145,162,402,1,"563","coupled","true",-0.829,1,7,8.228
1146,162,403,1,"559","conducting","true",-0.842,1,10,8.538
1147,162,404,1,"697","dilating","false",-0.395,1,8,4.564
1148,162,405,1,"676","Angelo's","true",-0.463,1,8,2.639
1149,162,407,1,"665","Victoria","true",-0.499,1,8,8.947
1150,162,408,1,"794","plowshares","false",-0.081,1,10,8.094
1151,162,410,1,"609","inactive","false",-0.68,1,8,7.238
1152,162,411,1,"669","glove","false",-0.486,1,5,7.764
1153,162,412,1,"1,114","declarations","true",0.956,1,12,7.518
1154,162,413,1,"554","brides","true",-0.858,1,6,6.395
1155,162,414,1,"503","insider","true",-1.024,1,7,7.165
1156,162,416,1,"657","Georgetown's","false",-0.525,1,12,2.89
1157,162,420,1,"538","giant","true",-0.91,1,5,10.479
1158,162,422,1,"869","espousing","true",0.162,1,9,5.835
1159,162,425,1,"1,508","accelerator","false",2.232,1,11,8.547
1160,162,426,1,"1,087","airdrop","false",0.868,1,7,3.219
1161,162,427,1,"895","monuments","false",0.246,1,9,6.666
1162,162,430,1,"891","rearrangement","false",0.233,1,13,5.037
1163,162,431,1,"1,227","Bucharest","false",1.322,1,9,6.711
1164,162,432,1,"709","thanked","false",-0.356,1,7,6.991
1165,162,433,1,"827","clod","false",0.026,1,4,5.257
1166,162,434,1,"691","rodent","false",-0.415,1,6,6.853
1167,162,435,1,"568","necessity","false",-0.813,1,9,8.468
1168,162,437,1,"663","boiler","true",-0.505,1,6,6.789
1169,162,438,1,"780","forums","true",-0.126,1,6,8.615
1170,162,441,1,"997","unflinching","true",0.577,1,11,5.182
1171,162,442,1,"1,744","adirondacks","false",2.996,1,11,4.779
1172,162,444,1,"525","turkey","false",-0.952,1,6,9.533
1173,162,445,1,"904","obtaining","true",0.275,1,9,8.705
1174,162,446,1,"1,024","intellectually","false",0.664,1,14,7.537
1175,162,449,1,"577","postcards","true",-0.784,1,9,7.708
1176,162,450,1,"1,070","disconcerting","false",0.813,1,13,6.073
1177,162,451,1,"559","Irene","true",-0.842,1,5,6.944
1178,162,453,1,"723","sacrilege","false",-0.311,1,9,5.17
1179,162,455,1,"1,415","leveling","true",1.93,1,8,5.652
1180,162,456,1,"789","revelry","false",-0.097,1,7,4.22
1181,162,463,1,"612","depression","false",-0.67,1,10,8.948
1182,162,464,1,"572","stepped","true",-0.8,1,7,8.677
1183,162,465,1,"1,122","enmeshed","true",0.981,1,8,4.644
1184,162,466,1,"605","fertility","false",-0.693,1,9,7.213
1185,162,471,1,"645","supported","true",-0.564,1,9,10.338
1186,162,472,1,"586","deference","false",-0.755,1,9,5.753
1187,162,473,1,"660","meets","false",-0.515,1,5,9.105
1188,162,480,1,"1,091","Senate's","false",0.881,1,8,4.934
1189,162,484,1,"1,573","incorruptible","false",2.442,1,13,3.829
1190,162,487,1,"606","omega","false",-0.69,1,5,8.366
1191,162,489,1,"667","cosmology","true",-0.492,1,9,6.837
1192,162,491,1,"569","attachment","true",-0.81,1,10,8.213
1193,162,493,1,"560","whirlpool","false",-0.839,1,9,6.075
1194,162,498,1,"657","dictators","true",-0.525,1,9,6.425
1195,162,500,1,"555","Jennie's","false",-0.855,1,8,2.079
1196,164,1,1,"834","Nassau's","true",-0.24,1,8,0.693
1197,164,2,1,"739","swat","false",-0.525,1,4,6.872
1198,164,3,1,"669","motivating","false",-0.735,1,10,6.378
1199,164,5,1,"617","forming","true",-0.891,1,7,8.444
1200,164,6,1,"526","visit","true",-1.164,1,5,10.689
1201,164,8,1,"929","celebrant","true",0.045,1,9,3.584
1202,164,9,1,"906","agitate","false",-0.024,1,7,5.198
1203,164,19,1,"1,052","discerned","false",0.414,1,9,5.318
1204,164,24,1,"792","playwriting","false",-0.366,1,11,3.296
1205,164,25,1,"1,582","Audubon","false",2.005,1,7,5.775
1206,164,26,1,"820","sprained","true",-0.282,1,8,5.553
1207,164,27,1,"802","breakdown","false",-0.336,1,9,8.204
1208,164,28,1,"1,317","puppyish","false",1.209,1,8,1.792
1209,164,29,1,"685","lyre","false",-0.687,1,4,7.459
1210,164,31,1,"1,089","aquarium","true",0.525,1,8,7.989
1211,164,32,1,"1,033","entreaty","false",0.357,1,8,2.773
1212,164,35,1,"592","taxes","true",-0.966,1,5,10.106
1213,164,37,1,"1,340","supine","false",1.278,1,6,5.136
1214,164,38,1,"457","meat","true",-1.371,1,4,9.606
1215,164,39,1,"465","heap","false",-1.347,1,4,8.37
1216,164,41,1,"695","outlined","true",-0.657,1,8,8.158
1217,164,42,1,"674","corrupts","true",-0.72,1,8,6.284
1218,164,43,1,"804","hints","false",-0.33,1,5,9.199
1219,164,45,1,"986","rallying","false",0.216,1,8,6.382
1220,164,47,1,"646","indexing","false",-0.804,1,8,7.418
1221,164,48,1,"1,420","proportionally","false",1.518,1,14,5.811
1222,164,56,1,"1,442","Connecticut","false",1.584,1,11,8.519
1223,164,58,1,"640","sexed","false",-0.822,1,5,4.19
1224,164,59,1,"1,360","deviations","true",1.338,1,10,6.607
1225,164,60,1,"730","dual","false",-0.552,1,4,9.5
1226,164,65,1,"911","slimed","false",-0.009,1,6,3.664
1227,164,66,1,"948","complain","false",0.102,1,8,9.428
1228,164,67,1,"612","junkie","true",-0.906,1,6,7.01
1229,164,71,1,"611","upon","true",-0.909,1,4,11.267
1230,164,75,1,"826","relentlessly","false",-0.264,1,12,6.192
1231,164,77,1,"629","hateful","true",-0.855,1,7,7.258
1232,164,78,1,"652","union's","true",-0.786,1,7,6.194
1233,164,80,1,"759","Germanized","true",-0.465,1,10,2.398
1234,164,83,1,"1,301","kindle","false",1.161,1,6,4.663
1235,164,85,1,"1,032","masquerading","false",0.354,1,12,6.42
1236,164,87,1,"579","vantage","false",-1.005,1,7,6.636
1237,164,89,1,"926","unrewarding","false",0.036,1,11,3.714
1238,164,90,1,"646","irreverent","true",-0.804,1,10,5.58
1239,164,91,1,"578","reponses","false",-1.008,1,8,5.694
1240,164,92,1,"865","blared","false",-0.147,1,6,4.234
1241,164,94,1,"747","gymnasium","false",-0.501,1,9,5.529
1242,164,99,1,"504","stained","false",-1.23,1,7,7.07
1243,164,105,1,"1,220","stockpile","false",0.918,1,9,5.817
1244,164,108,1,"1,928","fondue","false",3.043,1,6,4.466
1245,164,113,1,"805","deltas","true",-0.327,1,6,6.198
1246,164,118,1,"930","tiara","true",0.048,1,5,4.828
1247,164,119,1,"779","overbid","false",-0.405,1,7,5.645
1248,164,120,1,"1,264","exasperatingly","false",1.05,1,14,2.485
1249,164,123,1,"525","rare","true",-1.167,1,4,10.498
1250,164,124,1,"598","anatomy","true",-0.948,1,7,7.75
1251,164,127,1,"749","buckshot","true",-0.495,1,8,5.252
1252,164,129,1,"663","oppress","true",-0.753,1,7,6.534
1253,164,130,1,"1,017","tribune","false",0.309,1,7,7.668
1254,164,133,1,"709","bakes","false",-0.615,1,5,4.277
1255,164,135,1,"959","consummated","false",0.135,1,11,4.554
1256,164,138,1,"530","earn","false",-1.152,1,4,9.392
1257,164,140,1,"901","specification","false",-0.039,1,13,8.971
1258,164,141,1,"1,119","sonnet","true",0.615,1,6,5.927
1259,164,144,1,"991","westernization","true",0.231,1,14,3.951
1260,164,148,1,"832","doctoral","false",-0.246,1,8,7.172
1261,164,150,1,"1,706","disintegrating","true",2.377,1,14,5.159
1262,164,159,1,"1,827","substantiates","false",2.74,1,13,4.043
1263,164,160,1,"801","Christine","false",-0.339,1,9,8.338
1264,164,164,1,"1,144","unamused","false",0.69,1,8,2.89
1265,164,165,1,"647","cling","true",-0.801,1,5,7.107
1266,164,169,1,"1,050","sandpiper","false",0.408,1,9,4.382
1267,164,170,1,"1,217","mainstay","false",0.909,1,8,5.858
1268,164,171,1,"425","wait","false",-1.467,1,4,11.031
1269,164,178,1,"1,340","allegation","true",1.278,1,10,6.919
1270,164,181,1,"718","blabbed","true",-0.588,1,7,3.497
1271,164,182,1,"918","cables","false",0.012,1,6,9.121
1272,164,186,1,"549","boxing","true",-1.095,1,6,7.941
1273,164,188,1,"641","advisor","true",-0.819,1,7,8.42
1274,164,190,1,"1,073","workbasket","false",0.477,1,10,2.079
1275,164,192,1,"1,024","Atlantis","true",0.33,1,8,8.604
1276,164,199,1,"1,115","determination","false",0.603,1,13,8.52
1277,164,200,1,"720","deposited","false",-0.582,1,9,7.128
1278,164,202,1,"853","trademarks","false",-0.183,1,10,8.027
1279,164,203,1,"922","groin","true",0.024,1,5,7.168
1280,164,212,1,"1,429","amputation","true",1.545,1,10,5.298
1281,164,215,1,"1,222","outfielder","true",0.924,1,10,5.05
1282,164,217,1,"812","stalwart","true",-0.306,1,8,5.043
1283,164,218,1,"805","obliged","true",-0.327,1,7,7.604
1284,164,219,1,"745","rudiment","false",-0.507,1,8,1.609
1285,164,220,1,"1,175","dropsy","false",0.783,1,6,3.466
1286,164,223,1,"534","shipping","false",-1.14,1,8,11.268
1287,164,224,1,"810","reputation","false",-0.312,1,10,9.121
1288,164,225,1,"930","floodgate","false",0.048,1,9,4.06
1289,164,227,1,"644","chorus","true",-0.81,1,6,8.697
1290,164,228,1,"1,084","immortalize","false",0.51,1,11,3.912
1291,164,230,1,"881","whitens","false",-0.099,1,7,0
1292,164,231,1,"714","conforms","false",-0.6,1,8,6.542
1293,164,233,1,"566","efforts","true",-1.044,1,7,10.003
1294,164,243,1,"1,032","accumulates","true",0.354,1,11,5.517
1295,164,250,1,"737","Dan","true",-0.531,1,3,10.902
1296,164,251,1,"541","tag","false",-1.119,1,3,9.942
1297,164,253,1,"1,193","previsions","false",0.837,1,10,2.89
1298,164,255,1,"528","tempting","false",-1.158,1,8,7.14
1299,164,256,1,"657","inquirer","false",-0.771,1,8,6.466
1300,164,260,1,"1,016","Canterbury","false",0.306,1,10,7.081
1301,164,262,1,"501","deeds","false",-1.239,1,5,7.781
1302,164,268,1,"621","chicks","true",-0.879,1,6,6.986
1303,164,276,1,"625","remind","false",-0.867,1,6,8.935
1304,164,277,1,"687","junctures","false",-0.681,1,9,3.178
1305,164,278,1,"1,094","photoflash","true",0.54,1,10,3.219
1306,164,279,1,"875","cognizant","true",-0.117,1,9,5.609
1307,164,282,1,"712","prohibition","false",-0.606,1,11,8.378
1308,164,284,1,"830","demure","true",-0.252,1,6,4.956
1309,164,286,1,"861","antonym","true",-0.159,1,7,4.29
1310,164,287,1,"605","wealth","true",-0.927,1,6,9.387
1311,164,288,1,"590","feasts","true",-0.972,1,6,5.011
1312,164,290,1,"929","surprisingly","false",0.045,1,12,8.329
1313,164,291,1,"574","basin","true",-1.02,1,5,7.669
1314,164,293,1,"1,616","rickshaw","true",2.107,1,8,4.127
1315,164,308,1,"740","idealized","false",-0.522,1,9,5.805
1316,164,310,1,"649","broadcast","true",-0.795,1,9,9.666
1317,164,311,1,"705","Sawyer","false",-0.627,1,6,7.194
1318,164,314,1,"697","muffins","false",-0.651,1,7,5.994
1319,164,317,1,"1,459","scriptural","true",1.635,1,10,6.407
1320,164,318,1,"1,045","foreclose","true",0.393,1,9,3.989
1321,164,321,1,"1,600","administration","false",2.059,1,14,10.298
1322,164,322,1,"1,004","buttermilk","true",0.27,1,10,5.663
1323,164,323,1,"898","communicable","true",-0.048,1,12,5.106
1324,164,329,1,"651","metric","false",-0.789,1,6,8.154
1325,164,333,1,"1,630","percussionist","true",2.149,1,13,5.328
1326,164,334,1,"1,242","sadomasochism","true",0.984,1,13,4.89
1327,164,336,1,"818","arrests","false",-0.288,1,7,7.369
1328,164,337,1,"1,503","gloriously","false",1.767,1,10,4.997
1329,164,338,1,"1,059","matriculation","true",0.435,1,13,3.638
1330,164,339,1,"711","astrology","false",-0.609,1,9,8.075
1331,164,342,1,"711","lobes","false",-0.609,1,5,5.826
1332,164,343,1,"1,099","cannibalize","true",0.555,1,11,3.497
1333,164,346,1,"634","engraved","true",-0.84,1,8,6.488
1334,164,347,1,"756","cutter","true",-0.474,1,6,7.128
1335,164,348,1,"841","contractors","false",-0.219,1,11,8.171
1336,164,352,1,"1,722","marlin's","false",2.425,1,8,3.784
1337,164,354,1,"1,076","neuroses","true",0.486,1,8,4.836
1338,164,355,1,"776","giggled","false",-0.414,1,7,7.29
1339,164,358,1,"777","winced","false",-0.411,1,6,5.697
1340,164,362,1,"668","rattle","true",-0.738,1,6,7.118
1341,164,363,1,"1,072","mnemonic","false",0.474,1,8,6.211
1342,164,364,1,"1,023","inane","false",0.327,1,5,7.197
1343,164,365,1,"966","settee","true",0.156,1,6,3.85
1344,164,369,1,"661","biology","true",-0.759,1,7,9.277
1345,164,370,1,"1,202","stabilities","false",0.864,1,11,1.386
1346,164,371,1,"1,069","retouching","false",0.465,1,10,5.247
1347,164,373,1,"623","succumbing","true",-0.873,1,10,4.812
1348,164,374,1,"968","precariously","false",0.162,1,12,4.852
1349,164,375,1,"561","correspond","false",-1.059,1,10,8.292
1350,164,376,1,"685","flatness","true",-0.687,1,8,4.984
1351,164,377,1,"671","laminating","true",-0.729,1,10,3.664
1352,164,380,1,"650","intensive","true",-0.792,1,9,8.409
1353,164,381,1,"660","briskness","true",-0.762,1,9,0
1354,164,383,1,"758","nettled","false",-0.468,1,7,3.466
1355,164,385,1,"762","parks","true",-0.456,1,5,8.812
1356,164,388,1,"699","sniffing","false",-0.645,1,8,6.64
1357,164,389,1,"573","attempt","false",-1.023,1,7,10.637
1358,164,392,1,"1,014","justifiably","true",0.3,1,11,6.129
1359,164,393,1,"1,091","anonymous","true",0.531,1,9,11.008
1360,164,396,1,"526","two","false",-1.164,1,3,13.031
1361,164,397,1,"548","exhibit","true",-1.098,1,7,8.576
1362,164,399,1,"1,372","rectitude","false",1.374,1,9,4.317
1363,164,400,1,"830","underprivileged","false",-0.252,1,15,5.011
1364,164,403,1,"897","implored","false",-0.051,1,8,4.575
1365,164,404,1,"871","condonation","false",-0.129,1,11,0.693
1366,164,408,1,"1,040","fatless","false",0.378,1,7,1.099
1367,164,409,1,"882","maelstrom","false",-0.096,1,9,6.333
1368,164,410,1,"1,157","leaseholder","false",0.729,1,11,0
1369,164,412,1,"614","furnished","false",-0.9,1,9,7.003
1370,164,413,1,"592","winking","true",-0.966,1,7,5.598
1371,164,414,1,"1,482","radiocarbon","false",1.704,1,11,4.443
1372,164,415,1,"1,146","harpy","false",0.696,1,5,4.419
1373,164,417,1,"1,281","satirizes","false",1.101,1,9,2.708
1374,164,418,1,"666","shuddering","false",-0.744,1,10,5.878
1375,164,419,1,"816","captious","false",-0.294,1,8,1.386
1376,164,421,1,"894","icefall","true",-0.06,1,7,0
1377,164,422,1,"1,654","seismic","false",2.221,1,7,6.743
1378,164,424,1,"693","pursed","false",-0.663,1,6,4.605
1379,164,427,1,"1,110","disparate","false",0.588,1,9,6.519
1380,164,428,1,"512","rescuer","true",-1.206,1,7,4.407
1381,164,430,1,"777","eased","true",-0.411,1,5,6.818
1382,164,431,1,"912","popularism","true",-0.006,1,10,0
1383,164,434,1,"691","geometry","true",-0.669,1,8,8.664
1384,164,436,1,"691","tubers","false",-0.669,1,6,4.727
1385,164,437,1,"472","trees","false",-1.326,1,5,9.595
1386,164,443,1,"722","freeways","false",-0.576,1,8,6.011
1387,164,445,1,"1,028","forages","false",0.342,1,7,2.773
1388,164,446,1,"855","iniquity","false",-0.177,1,8,5.602
1389,164,447,1,"770","Rebecca","true",-0.432,1,7,8.181
1390,164,448,1,"624","barrel","false",-0.87,1,6,8.83
1391,164,454,1,"500","uses","true",-1.242,1,4,11.085
1392,164,455,1,"748","deuce","true",-0.498,1,5,5.855
1393,164,456,1,"692","coverings","false",-0.666,1,9,5.075
1394,164,460,1,"648","spares","true",-0.798,1,6,6.534
1395,164,466,1,"645","lowest","false",-0.807,1,6,9.147
1396,164,467,1,"735","vibrato","false",-0.537,1,7,6.201
1397,164,473,1,"884","equip","false",-0.09,1,5,7.338
1398,164,480,1,"935","workman's","true",0.063,1,9,4.369
1399,164,481,1,"829","synapses","false",-0.255,1,8,5.509
1400,164,483,1,"1,011","congestion","false",0.291,1,10,6.575
1401,164,486,1,"795","lounges","true",-0.357,1,7,4.949
1402,164,489,1,"632","exuded","false",-0.846,1,6,4.234
1403,164,492,1,"882","maneuvers","false",-0.096,1,9,7.124
1404,164,493,1,"1,235","bonesetter","true",0.963,1,10,0
1405,164,494,1,"480","smoothie","false",-1.302,1,8,4.078
1406,164,495,1,"552","sphere","false",-1.086,1,6,9.426
1407,159,139,1,"1,120","revolutionize","true",2.304,1,13,5.771
1408,54,137,1,"1,085","conjoint","false",0.384,1,8,3.761
1409,61,135,1,"894","Goth","true",-0.073,1,4,7.624
1410,267,140,1,"614","causality","true",-0.71,1,9,7.297
1411,70,1,1,"716","imperialist","false",-0.368,1,11,6.757
1412,97,136,1,"1,060","spatter","true",1.445,1,7,3.784
1413,43,3,1,"455","conferring","false",-1.151,1,10,4.984
1414,254,134,1,"650","researchers","false",-0.115,1,11,9.109
1415,165,5,1,"745","introspect","false",0.49,1,10,4.248
1416,165,8,1,"603","monks","true",-0.25,1,5,7.654
1417,165,9,1,"621","prospects","false",-0.156,1,9,8.238
1418,165,12,1,"693","enslave","false",0.219,1,7,6.46
1419,165,13,1,"630","insistence","false",-0.11,1,10,6.995
1420,165,15,1,"597","sobered","false",-0.282,1,7,4.248
1421,165,16,1,"810","immeasurable","true",0.829,1,12,4.86
1422,165,17,1,"682","Arabia","false",0.162,1,6,7.834
1423,165,20,1,"599","curtains","false",-0.271,1,8,6.796
1424,165,21,1,"600","centralized","false",-0.266,1,11,7.233
1425,165,22,1,"861","upheaval","true",1.095,1,8,6.4
1426,165,23,1,"670","brittle","false",0.099,1,7,6.603
1427,165,26,1,"536","sport","true",-0.6,1,5,9.672
1428,165,28,1,"692","hypothermia","true",0.214,1,11,5.464
1429,165,29,1,"804","Leningrad's","true",0.798,1,11,1.946
1430,165,30,1,"636","encase","false",-0.078,1,6,4.007
1431,165,33,1,"580","translated","false",-0.37,1,10,8.844
1432,165,37,1,"554","peaches","true",-0.506,1,7,6.569
1433,165,38,1,"488","Jesse","false",-0.85,1,5,8.665
1434,165,39,1,"519","fulfill","false",-0.688,1,7,8.254
1435,165,40,1,"606","recast","true",-0.235,1,6,5.7
1436,165,44,1,"766","accentuate","false",0.6,1,10,5.081
1437,165,45,1,"731","sanitation","false",0.417,1,10,6.531
1438,165,46,1,"754","poses","false",0.537,1,5,7.657
1439,165,48,1,"587","shamed","false",-0.334,1,6,5.398
1440,165,49,1,"998","observance","false",1.81,1,10,6.715
1441,165,50,1,"989","adverbial","false",1.763,1,9,4.477
1442,165,51,1,"611","coatings","true",-0.209,1,8,6.444
1443,165,52,1,"539","teammates","true",-0.584,1,9,6.646
1444,165,53,1,"513","explorers","false",-0.72,1,9,6.506
1445,165,56,1,"664","eggnog","true",0.068,1,6,4.078
1446,165,60,1,"557","Indiana","false",-0.49,1,7,9.343
1447,165,62,1,"1,008","surmises","true",1.862,1,8,3.611
1448,165,65,1,"723","gratitude","false",0.375,1,9,7.274
1449,165,66,1,"799","petulance","false",0.772,1,9,3.584
1450,165,70,1,"611","evaluated","false",-0.209,1,9,8.446
1451,165,75,1,"612","Rockies","true",-0.203,1,7,6.982
1452,165,76,1,"563","casing","false",-0.459,1,6,6.871
1453,165,78,1,"657","interlayer","true",0.031,1,10,2.303
1454,165,79,1,"777","barium","false",0.657,1,6,5.557
1455,165,82,1,"643","destitute","false",-0.042,1,9,5.541
1456,165,83,1,"790","coeditors","false",0.725,1,9,0
1457,165,84,1,"713","wheelbarrow","false",0.323,1,11,5.951
1458,165,85,1,"654","reciprocal","true",0.016,1,10,6.703
1459,165,88,1,"632","accuses","false",-0.099,1,7,6.696
1460,165,89,1,"529","sultry","false",-0.636,1,6,5.509
1461,165,91,1,"484","tinkling","false",-0.871,1,8,4.127
1462,165,94,1,"638","universally","false",-0.068,1,11,7.877
1463,165,95,1,"1,217","differentiable","false",2.952,1,14,4.263
1464,165,98,1,"619","poisoning","true",-0.167,1,9,7.468
1465,165,99,1,"766","wallboard","true",0.6,1,9,3.664
1466,165,101,1,"636","dove","false",-0.078,1,4,7.906
1467,165,103,1,"851","anagram","true",1.043,1,7,6.575
1468,165,104,1,"663","sheepskin","false",0.063,1,9,4.605
1469,165,106,1,"558","heatwave","true",-0.485,1,8,5.017
1470,165,107,1,"1,758","smolderingly","false",5.773,1,12,0
1471,165,109,1,"499","oxide","false",-0.793,1,5,7.184
1472,165,110,1,"785","consternate","true",0.699,1,11,0
1473,165,111,1,"826","tradespeople","false",0.913,1,12,2.197
1474,165,112,1,"775","twentieth","true",0.647,1,9,7.37
1475,165,115,1,"574","exceptional","false",-0.402,1,11,8.381
1476,165,117,1,"561","huddle","true",-0.469,1,6,5.361
1477,165,119,1,"557","isolation","false",-0.49,1,9,8.114
1478,165,122,1,"652","grandma","true",0.005,1,7,7.155
1479,165,123,1,"706","temptations","false",0.287,1,11,6.225
1480,165,124,1,"509","yacht","true",-0.741,1,5,6.914
1481,165,126,1,"931","jog","false",1.46,1,3,6.486
1482,165,127,1,"640","optimizing","false",-0.057,1,10,7.071
1483,165,129,1,"774","fiddlesticks","true",0.641,1,12,2.485
1484,165,134,1,"629","scuttle","false",-0.115,1,7,5.226
1485,165,135,1,"610","resettling","false",-0.214,1,10,3.091
1486,165,139,1,"626","motherhood","false",-0.13,1,10,6.252
1487,165,141,1,"597","Carnegie","true",-0.282,1,8,8.107
1488,165,143,1,"583","elaborates","false",-0.355,1,10,4.625
1489,165,144,1,"813","alcove","true",0.845,1,6,5.576
1490,165,147,1,"760","comparable","true",0.568,1,10,8.874
1491,165,148,1,"755","generate","true",0.542,1,8,9.722
1492,165,149,1,"370","food","false",-1.465,1,4,10.997
1493,165,150,1,"514","holds","true",-0.714,1,5,9.574
1494,165,151,1,"524","crockery","true",-0.662,1,8,4.094
1495,165,152,1,"442","stapler","true",-1.09,1,7,4.331
1496,165,154,1,"892","spinnaker","true",1.257,1,9,5.375
1497,165,156,1,"583","overkill","true",-0.355,1,8,7.447
1498,165,158,1,"564","militia","true",-0.454,1,7,8.854
1499,165,159,1,"679","guru","false",0.146,1,4,8.862
1500,165,160,1,"561","dumpy","false",-0.469,1,5,4.443
1501,165,161,1,"438","patricide","true",-1.111,1,9,1.609
1502,165,163,1,"497","merman","true",-0.803,1,6,4.779
1503,165,165,1,"928","Bowie","false",1.445,1,5,7.274
1504,165,166,1,"588","Nietzsche","false",-0.329,1,9,7.509
1505,165,168,1,"740","cancelling","false",0.464,1,10,8.106
1506,165,169,1,"544","loft","true",-0.558,1,4,6.619
1507,165,171,1,"720","dale","false",0.36,1,4,9.201
1508,165,172,1,"530","demanded","false",-0.631,1,8,8.25
1509,165,173,1,"712","scoffing","false",0.318,1,8,4.419
1510,165,175,1,"702","counterattack","true",0.266,1,13,5.652
1511,165,177,1,"804","turnaround","false",0.798,1,10,7.09
1512,165,178,1,"458","expressions","true",-1.006,1,11,8.429
1513,165,180,1,"582","fuselage","true",-0.36,1,8,6.632
1514,165,181,1,"429","village","false",-1.158,1,7,9.491
1515,165,184,1,"820","cooperatives","true",0.881,1,12,5.182
1516,165,185,1,"539","eradication","false",-0.584,1,11,6.066
1517,165,186,1,"573","monstrous","false",-0.407,1,9,6.824
1518,165,189,1,"673","consulted","true",0.115,1,9,7.348
1519,165,193,1,"969","scandalizing","true",1.658,1,12,0
1520,165,194,1,"484","penis","true",-0.871,1,5,9.318
1521,165,195,1,"451","acute","true",-1.043,1,5,7.794
1522,165,198,1,"511","stated","true",-0.73,1,6,10.487
1523,165,199,1,"798","horsefly","false",0.767,1,8,2.079
1524,165,200,1,"573","phooey","false",-0.407,1,6,4.736
1525,165,202,1,"571","uneasiness","false",-0.417,1,10,4.812
1526,165,203,1,"620","charisma","true",-0.162,1,8,6.609
1527,165,205,1,"645","prevalence","true",-0.031,1,10,6.529
1528,165,206,1,"442","tripped","false",-1.09,1,7,6.569
1529,165,213,1,"654","bugaboo","false",0.016,1,7,4.19
1530,165,214,1,"924","heightening","false",1.424,1,11,4.317
1531,165,215,1,"946","Brandywine","true",1.538,1,10,4.796
1532,165,216,1,"878","irrecoverable","false",1.184,1,13,3.401
1533,165,217,1,"519","liberating","true",-0.688,1,10,6.207
1534,165,222,1,"533","handful","false",-0.615,1,7,8.311
1535,165,223,1,"599","recordings","true",-0.271,1,10,9.097
1536,165,229,1,"770","verbally","true",0.621,1,8,7.024
1537,165,230,1,"694","batman","true",0.224,1,6,9.354
1538,165,232,1,"741","arched","true",0.469,1,6,6.992
1539,165,233,1,"939","paleolithic","false",1.502,1,11,4.654
1540,165,235,1,"601","reign","false",-0.261,1,5,7.947
1541,165,236,1,"503","scrunch","false",-0.772,1,7,3.296
1542,165,238,1,"601","Gaul","true",-0.261,1,4,5.958
1543,165,240,1,"468","delete","false",-0.954,1,6,9.843
1544,165,241,1,"681","Augusta's","false",0.156,1,9,1.099
1545,165,248,1,"725","holograph","true",0.386,1,9,3.738
1546,165,250,1,"850","planking","true",1.038,1,8,4.025
1547,165,251,1,"590","wive's","false",-0.318,1,6,3.466
1548,165,253,1,"531","Poland","true",-0.626,1,6,8.589
1549,165,255,1,"845","ordinarily","false",1.012,1,10,6.938
1550,165,257,1,"628","renting","false",-0.12,1,7,7.456
1551,165,259,1,"609","toasted","true",-0.219,1,7,6.632
1552,165,260,1,"1,165","soothsayer","true",2.68,1,10,3.989
1553,165,262,1,"592","shopkeeper","true",-0.308,1,10,5.666
1554,165,263,1,"2,339","moonbeam","true",8.803,1,8,4.575
1555,165,264,1,"538","dazzles","false",-0.589,1,7,2.639
1556,165,265,1,"522","powerboat","false",-0.673,1,9,4.407
1557,165,270,1,"644","wholesale","true",-0.037,1,9,8.416
1558,165,273,1,"779","fairyland","true",0.668,1,9,3.332
1559,165,279,1,"722","fluorescent","false",0.37,1,11,6.882
1560,165,281,1,"930","ago","false",1.455,1,3,11.662
1561,165,282,1,"921","psyches","false",1.408,1,7,5.094
1562,165,285,1,"939","kindliness","true",1.502,1,10,1.386
1563,165,288,1,"626","queasy","true",-0.13,1,6,5.303
1564,165,289,1,"753","perversity","true",0.532,1,10,4.934
1565,165,290,1,"684","beginners","false",0.172,1,9,8.388
1566,165,293,1,"764","argumentative","false",0.589,1,13,5.72
1567,165,296,1,"639","coach's","true",-0.063,1,7,4.868
1568,165,298,1,"1,104","criticized","true",2.362,1,10,7.856
1569,165,300,1,"1,019","participial","true",1.919,1,11,2.639
1570,165,302,1,"598","packages","true",-0.276,1,8,10.023
1571,165,303,1,"715","choirmaster","false",0.334,1,11,1.609
1572,165,304,1,"469","has","false",-0.949,1,3,13.978
1573,165,306,1,"652","fizzy","true",0.005,1,5,4.595
1574,165,308,1,"630","banquets","false",-0.11,1,8,4.977
1575,165,313,1,"621","loading","false",-0.156,1,7,9.237
1576,165,319,1,"711","lying","true",0.313,1,5,9.61
1577,165,322,1,"522","aimed","true",-0.673,1,5,8.875
1578,165,325,1,"559","shouldering","true",-0.48,1,11,4.06
1579,165,328,1,"541","briefly","false",-0.574,1,7,8.776
1580,165,329,1,"690","Bill's","false",0.203,1,6,7.508
1581,165,331,1,"780","nag","false",0.673,1,3,6.69
1582,165,332,1,"490","elf","false",-0.84,1,3,8.887
1583,165,334,1,"626","foreground","true",-0.13,1,10,7.483
1584,165,335,1,"571","goodies","false",-0.417,1,7,8.111
1585,165,337,1,"667","cartoon","false",0.083,1,7,8.733
1586,165,338,1,"647","adhesive","false",-0.021,1,8,6.844
1587,165,339,1,"888","gainers","true",1.236,1,7,5.063
1588,165,341,1,"2,470","dynamism","false",9.486,1,8,4.89
1589,165,345,1,"637","extensive","false",-0.073,1,9,9.743
1590,165,348,1,"659","dined","false",0.042,1,5,4.984
1591,165,351,1,"565","like","true",-0.448,1,4,13.875
1592,165,352,1,"553","Lee's","false",-0.511,1,5,7.089
1593,165,355,1,"619","plows","true",-0.167,1,5,5.037
1594,165,357,1,"846","spurns","false",1.017,1,6,2.708
1595,165,359,1,"669","purpose","true",0.094,1,7,10.76
1596,165,361,1,"1,179","antennae","false",2.753,1,8,6.033
1597,165,362,1,"607","enclave","true",-0.229,1,7,6.377
1598,165,365,1,"657","tapping","true",0.031,1,7,7.629
1599,165,369,1,"622","mauler","true",-0.151,1,6,4.615
1600,165,372,1,"901","originated","false",1.304,1,10,8.26
1601,165,374,1,"702","hernia","true",0.266,1,6,5.533
1602,165,376,1,"746","ragtag","true",0.495,1,6,3.332
1603,165,379,1,"798","inclinations","true",0.767,1,12,5.945
1604,165,380,1,"535","boundless","true",-0.605,1,9,6.107
1605,165,381,1,"865","meteorological","false",1.116,1,14,6.831
1606,165,388,1,"833","chatterbox","true",0.949,1,10,3.97
1607,165,390,1,"763","Roberto","false",0.584,1,7,8.02
1608,165,392,1,"678","departs","false",0.141,1,7,5.932
1609,165,397,1,"635","scratched","false",-0.083,1,9,7.195
1610,165,399,1,"601","incredibly","true",-0.261,1,10,9.083
1611,165,403,1,"687","transfered","false",0.188,1,10,6.876
1612,165,407,1,"589","protrude","false",-0.323,1,8,5.1
1613,165,411,1,"929","foresaw","true",1.45,1,7,4.745
1614,165,413,1,"746","informative","false",0.495,1,11,8.616
1615,165,415,1,"683","braids","false",0.167,1,6,5.226
1616,165,418,1,"961","tenure","false",1.617,1,6,7.288
1617,165,422,1,"682","welt","true",0.162,1,4,6.46
1618,165,424,1,"704","Cinderella","false",0.276,1,10,6.891
1619,165,426,1,"783","Gothic","true",0.688,1,6,7.924
1620,165,427,1,"801","cavern","true",0.782,1,6,6.581
1621,165,428,1,"735","enlargements","true",0.438,1,12,4.762
1622,165,432,1,"947","finesse","false",1.544,1,7,6.446
1623,165,433,1,"707","drier","false",0.292,1,5,5.826
1624,165,437,1,"585","pave","true",-0.344,1,4,6.619
1625,165,439,1,"906","magnetically","false",1.33,1,12,5.03
1626,165,441,1,"619","halibut","true",-0.167,1,7,6.238
1627,165,443,1,"774","swindled","true",0.641,1,8,4.663
1628,165,444,1,"512","storyline","true",-0.725,1,9,8.117
1629,165,445,1,"896","trove","true",1.278,1,5,5.268
1630,165,446,1,"487","realize","true",-0.855,1,7,10.458
1631,165,450,1,"554","attend","false",-0.506,1,6,9.352
1632,165,453,1,"960","thoroughfares","true",1.611,1,13,3.258
1633,165,454,1,"522","see","false",-0.673,1,3,13.272
1634,165,456,1,"878","bemuse","false",1.184,1,6,1.946
1635,165,459,1,"694","hooter","true",0.224,1,6,3.784
1636,165,461,1,"642","dances","false",-0.047,1,6,8.082
1637,165,465,1,"809","Republicans","false",0.824,1,11,9.555
1638,165,468,1,"592","quietness","false",-0.308,1,9,4.727
1639,165,471,1,"669","snag","false",0.094,1,4,7.266
1640,165,473,1,"624","suddenly","true",-0.141,1,8,9.959
1641,165,476,1,"761","cordiality","true",0.574,1,10,3.664
1642,165,478,1,"933","silicon","false",1.471,1,7,9.326
1643,165,479,1,"712","electoral","false",0.318,1,9,7.954
1644,165,480,1,"806","highroad","false",0.808,1,8,1.099
1645,165,482,1,"749","regularity","false",0.511,1,10,6.48
1646,165,484,1,"831","rooming","false",0.939,1,7,4.787
1647,165,485,1,"944","triceps","true",1.528,1,7,5.159
1648,165,486,1,"713","hungry","false",0.323,1,6,8.748
1649,165,489,1,"826","geophysics","true",0.913,1,10,6.957
1650,165,490,1,"668","thermally","true",0.089,1,9,5.088
1651,165,491,1,"594","laudably","false",-0.297,1,8,0.693
1652,165,497,1,"823","moisten","false",0.897,1,7,5.081
1653,165,498,1,"639","feeling","false",-0.063,1,7,10.529
1654,165,499,1,"553","impartial","true",-0.511,1,9,7.039
1655,166,1,1,"837","October","true",0.156,1,7,9.898
1656,166,3,1,"834","scrumptious","false",0.146,1,11,4.159
1657,166,4,1,"642","stir","false",-0.49,1,4,8.417
1658,166,7,1,"559","whip","false",-0.765,1,4,8.509
1659,166,8,1,"724","presto","false",-0.219,1,6,7.136
1660,166,9,1,"813","haddock","true",0.076,1,7,5.215
1661,166,11,1,"945","rammed","true",0.513,1,6,6.528
1662,166,12,1,"1,179","acquit","false",1.288,1,6,4.605
1663,166,13,1,"678","wasteland","false",-0.371,1,9,6.666
1664,166,16,1,"1,371","mainsail","true",1.924,1,8,3.97
1665,166,17,1,"1,187","Christopher","true",1.314,1,11,10.018
1666,166,18,1,"982","mills","false",0.636,1,5,8.454
1667,166,19,1,"818","uniting","true",0.093,1,7,6.201
1668,166,20,1,"1,050","Frankfort","false",0.861,1,9,5.22
1669,166,21,1,"729","phobic","true",-0.202,1,6,5.024
1670,166,22,1,"758","podiatrist","true",-0.106,1,10,4.317
1671,166,25,1,"1,319","asocial","false",1.751,1,7,3.434
1672,166,28,1,"503","comas","true",-0.95,1,5,4.86
1673,166,31,1,"587","insertion","false",-0.672,1,9,7.686
1674,166,36,1,"687","ballistic","true",-0.341,1,9,7.159
1675,166,39,1,"555","phony","false",-0.778,1,5,7.334
1676,166,41,1,"857","tapioca","true",0.222,1,7,4.691
1677,166,42,1,"614","pasted","false",-0.583,1,6,6.899
1678,166,43,1,"934","shorten","false",0.477,1,7,7.01
1679,166,44,1,"875","escalator","true",0.281,1,9,5.242
1680,166,47,1,"563","spray","false",-0.752,1,5,8.547
1681,166,51,1,"1,070","conjecture","false",0.927,1,10,7.156
1682,166,53,1,"1,622","interstitial","true",2.755,1,12,4.19
1683,166,55,1,"835","cupped","false",0.149,1,6,6.436
1684,166,57,1,"1,065","exhumations","false",0.91,1,11,2.485
1685,166,65,1,"1,581","militarily","false",2.619,1,10,6.217
1686,166,67,1,"735","apprehended","true",-0.182,1,11,5.642
1687,166,72,1,"760","mysticism","true",-0.099,1,9,7.107
1688,166,74,1,"779","disaffected","false",-0.036,1,11,5.153
1689,166,75,1,"819","trillionth","true",0.096,1,10,1.792
1690,166,78,1,"525","record","false",-0.877,1,6,11.035
1691,166,81,1,"591","typed","false",-0.659,1,5,8.638
1692,166,82,1,"569","kilo","true",-0.732,1,4,6.339
1693,166,86,1,"688","clips","true",-0.338,1,5,8.557
1694,166,88,1,"936","disrepute","false",0.483,1,9,4.7
1695,166,94,1,"1,170","psychiatrists","true",1.258,1,13,6.526
1696,166,98,1,"1,151","senselessly","true",1.195,1,11,4.06
1697,166,99,1,"595","toxic","false",-0.646,1,5,8.438
1698,166,102,1,"675","brewers","true",-0.381,1,7,7.11
1699,166,105,1,"636","checkbook","false",-0.51,1,9,6.118
1700,166,106,1,"518","biceps","true",-0.901,1,6,5.9
1701,166,113,1,"655","feast","false",-0.447,1,5,7.555
1702,166,116,1,"755","crawling","true",-0.116,1,8,7.352
1703,166,117,1,"642","prerecord","false",-0.49,1,9,0
1704,166,118,1,"706","pinto","true",-0.278,1,5,6.772
1705,166,120,1,"691","listlessly","false",-0.328,1,10,2.89
1706,166,126,1,"781","sedative","false",-0.03,1,8,5.247
1707,166,128,1,"677","librarians","false",-0.374,1,10,7.417
1708,166,129,1,"676","subsystem","false",-0.377,1,9,7.929
1709,166,133,1,"759","clams","false",-0.103,1,5,6.515
1710,166,134,1,"613","trances","false",-0.586,1,7,3.912
1711,166,136,1,"868","undertaking","false",0.258,1,11,7.23
1712,166,137,1,"1,430","retread","true",2.119,1,7,4.344
1713,166,143,1,"516","hundred","false",-0.907,1,7,9.851
1714,166,148,1,"889","notary","false",0.328,1,6,5.226
1715,166,150,1,"742","mammas","false",-0.159,1,6,2.079
1716,166,151,1,"733","shadowbox","true",-0.189,1,9,1.609
1717,166,152,1,"695","alcoholic","false",-0.315,1,9,7.509
1718,166,153,1,"637","choicest","false",-0.507,1,8,3.892
1719,166,155,1,"691","industrialist","true",-0.328,1,13,5.799
1720,166,160,1,"580","duplicate","true",-0.695,1,9,8.563
1721,166,164,1,"592","pronouns","true",-0.656,1,8,6.258
1722,166,165,1,"536","Tommy's","false",-0.841,1,7,5.971
1723,166,173,1,"932","emeralds","true",0.47,1,8,5.069
1724,166,176,1,"905","veering","false",0.381,1,7,4.331
1725,166,177,1,"540","potty","true",-0.828,1,5,6.526
1726,166,178,1,"512","gambler","false",-0.92,1,7,6.091
1727,166,180,1,"617","repeated","false",-0.573,1,8,9.226
1728,166,181,1,"584","salts","true",-0.682,1,5,7.066
1729,166,184,1,"895","communities","false",0.348,1,11,9.166
1730,166,186,1,"634","poking","true",-0.516,1,6,7.403
1731,166,187,1,"576","way","false",-0.709,1,3,13.102
1732,166,189,1,"720","decadent","true",-0.232,1,8,5.956
1733,166,190,1,"482","can","true",-1.02,1,3,14.301
1734,166,192,1,"714","differential","false",-0.252,1,12,8.291
1735,166,193,1,"704","atmospheres","true",-0.285,1,11,5.642
1736,166,198,1,"543","tended","true",-0.818,1,6,7.796
1737,166,199,1,"581","tasteless","false",-0.692,1,9,7.162
1738,166,205,1,"590","faint","true",-0.662,1,5,7.829
1739,166,207,1,"938","exhaling","false",0.49,1,8,4.718
1740,166,209,1,"488","smart","false",-1,1,5,9.786
1741,166,211,1,"612","rigorously","true",-0.589,1,10,6.047
1742,166,213,1,"551","jackets","false",-0.791,1,7,7.314
1743,166,214,1,"751","Americans","false",-0.129,1,9,10.34
1744,166,218,1,"691","epitome","false",-0.328,1,7,5.905
1745,166,220,1,"561","ravishing","false",-0.758,1,9,4.875
1746,166,221,1,"981","uncolored","true",0.632,1,9,3.689
1747,166,225,1,"1,321","commune","false",1.758,1,7,6.26
1748,166,229,1,"626","explores","true",-0.543,1,8,6.834
1749,166,231,1,"1,062","Koran","false",0.901,1,5,6.899
1750,166,232,1,"699","mongoose","true",-0.301,1,8,5.894
1751,166,233,1,"896","fortunately","true",0.351,1,11,8.927
1752,166,234,1,"640","widows","true",-0.497,1,6,6.295
1753,166,236,1,"922","gullible","false",0.437,1,8,6.973
1754,166,238,1,"1,621","runabout","false",2.751,1,8,6.339
1755,166,240,1,"822","bustle","false",0.106,1,6,5.088
1756,166,241,1,"858","maturate","true",0.225,1,8,0
1757,166,242,1,"1,036","hope's","false",0.814,1,6,4.443
1758,166,243,1,"828","scratchy","true",0.126,1,8,6.635
1759,166,245,1,"852","prosper","false",0.205,1,7,7.41
1760,166,248,1,"966","dilapidation","true",0.583,1,12,1.792
1761,166,249,1,"711","religions","false",-0.262,1,9,9.088
1762,166,251,1,"595","dozens","true",-0.646,1,6,8.736
1763,166,252,1,"521","planting","false",-0.891,1,8,7.238
1764,166,255,1,"524","funds","true",-0.881,1,5,10.08
1765,166,256,1,"398","glory","false",-1.298,1,5,9.199
1766,166,257,1,"419","tribes","false",-1.228,1,6,8.028
1767,166,258,1,"808","transcendentalist","false",0.06,1,17,3.951
1768,166,264,1,"426","follow","true",-1.205,1,6,10.977
1769,166,266,1,"699","flagrant","true",-0.301,1,8,6.628
1770,166,267,1,"893","indecisively","false",0.341,1,12,1.792
1771,166,269,1,"519","babes","true",-0.897,1,5,7.196
1772,166,275,1,"1,007","unworkable","false",0.718,1,10,6.05
1773,166,276,1,"703","demographic","true",-0.288,1,11,7.116
1774,166,277,1,"754","coolheaded","true",-0.119,1,10,0
1775,166,280,1,"460","alike","false",-1.093,1,5,8.63
1776,166,286,1,"633","structure","true",-0.52,1,9,10.305
1777,166,287,1,"610","linguist","true",-0.596,1,8,6.351
1778,166,288,1,"663","verbalize","true",-0.42,1,9,4.407
1779,166,294,1,"660","enacting","false",-0.43,1,8,5.768
1780,166,295,1,"890","nightmarish","false",0.331,1,11,5.46
1781,166,296,1,"1,057","efficiency","true",0.884,1,10,8.931
1782,166,298,1,"603","bathrooms","true",-0.619,1,9,6.506
1783,166,299,1,"1,461","primordial","true",2.222,1,10,7.713
1784,166,300,1,"544","accountants","true",-0.814,1,11,7.317
1785,166,303,1,"451","blade","true",-1.122,1,5,9.169
1786,166,306,1,"575","theoretical","true",-0.712,1,11,8.797
1787,166,309,1,"600","Apollo's","true",-0.629,1,8,5.293
1788,166,316,1,"899","convicting","false",0.361,1,10,4.934
1789,166,320,1,"755","fission","true",-0.116,1,7,7.461
1790,166,322,1,"655","loaned","false",-0.447,1,6,6.611
1791,166,324,1,"769","glazing","false",-0.07,1,7,4.927
1792,166,325,1,"541","creep","false",-0.824,1,5,7.492
1793,166,331,1,"898","module","false",0.358,1,6,9.662
1794,166,334,1,"657","messing","false",-0.44,1,7,7.749
1795,166,335,1,"870","ravel","true",0.265,1,5,5.958
1796,166,336,1,"505","deadly","false",-0.944,1,6,8.587
1797,166,337,1,"580","bloated","false",-0.695,1,7,7.402
